File: Non-charring/PMMA/DBI_Lund/DBI_Lund_TGA_N2_20K_3.csv
Time,Temperature,Mass
[s],[K],[mg]
0.00,298.33,5.50E+00
2.00,298.33,5.51E+00
4.00,298.338,5.48E+00
6.00,298.347,5.45E+00
8.00,298.358,5.44E+00
10.00,298.3747,5.43E+00
12.00,298.401,5.43E+00
14.00,298.437,5.43E+00
16.00,298.492,5.43E+00
18.00,298.5673,5.43E+00
20.00,298.6668,5.43E+00
22.00,298.7912,5.43E+00
24.00,298.9429,5.43E+00
26.00,299.1249,5.43E+00
28.00,299.34,5.43E+00
30.00,299.5878,5.43E+00
32.00,299.874,5.44E+00
34.00,300.195,5.44E+00
36.00,300.556,5.44E+00
38.00,300.951,5.44E+00
40.00,301.3823,5.44E+00
42.00,301.852,5.43902
44.00,302.363,5.44871
46.00,302.905,5.45435
48.00,303.481,5.45333
50.00,304.087,5.43485
52.00,304.722,5.4353
54.00,305.385,5.43394
56.00,306.0729,5.43811
58.00,306.789,5.44014
60.00,307.529,5.44161
62.00,308.289,5.44228
64.00,309.073,5.44161
66.00,309.871,5.43834
68.00,310.686,5.44082
70.00,311.515,5.44352
72.00,312.359,5.44341
74.00,313.214,5.44431
76.00,314.0768,5.44319
78.00,314.948,5.44262
80.00,315.824,5.44049
82.00,316.705,5.44049
84.00,317.5912,5.44071
86.00,318.48,5.43834
88.00,319.369,5.43924
90.00,320.259,5.43811
92.00,321.146,5.43767
94.00,322.034,5.43755
96.00,322.915,5.43529
98.00,323.797,5.43394
100.00,324.673,5.43304
102.00,325.546,5.43259
104.00,326.413,5.43293
106.00,327.278,5.43158
108.00,328.137,5.4326
110.00,328.99,5.4326
112.00,329.835,5.4326
114.00,330.675,5.43124
116.00,331.509,5.43124
118.00,332.339,5.43191
120.00,333.1669,5.43191
122.00,333.9851,5.43191
124.00,334.796,5.4309
126.00,335.599,5.43045
128.00,336.403,5.42909
130.00,337.201,5.43045
132.00,337.994,5.4291
134.00,338.781,5.42741
136.00,339.563,5.42639
138.00,340.339,5.42504
140.00,341.112,5.42606
142.00,341.879,5.42572
144.00,342.638,5.42504
146.00,343.393,5.42369
148.00,344.144,5.42369
150.00,344.893,5.42335
152.00,345.641,5.42369
154.00,346.382,5.42233
156.00,347.121,5.42098
158.00,347.857,5.41997
160.00,348.59,5.41963
162.00,349.3192,5.41963
164.00,350.0472,5.41963
166.00,350.772,5.41963
168.00,351.497,5.4203
170.00,352.218,5.42098
172.00,352.9388,5.41963
174.00,353.659,5.42098
176.00,354.376,5.42098
178.00,355.096,5.42098
180.00,355.813,5.42098
182.00,356.5308,5.42064
184.00,357.247,5.41962
186.00,357.96,5.41827
188.00,358.675,5.41827
190.00,359.389,5.41827
192.00,360.1049,5.41827
194.00,360.8218,5.41827
196.00,361.54,5.41827
198.00,362.258,5.41861
200.00,362.972,5.41726
202.00,363.684,5.41726
204.00,364.4,5.41726
206.00,365.115,5.41726
208.00,365.8261,5.41726
210.00,366.5381,5.41692
212.00,367.253,5.41591
214.00,367.968,5.41591
216.00,368.681,5.41591
218.00,369.3942,5.41591
220.00,370.11,5.41726
222.00,370.827,5.41726
224.00,371.54,5.41726
226.00,372.253,5.41726
228.00,372.962,5.41726
230.00,373.671,5.41794
232.00,374.379,5.41794
234.00,375.09,5.41794
236.00,375.8,5.41726
238.00,376.505,5.41659
240.00,377.208,5.41501
242.00,377.9101,5.41501
244.00,378.6112,5.41501
246.00,379.311,5.41703
248.00,380.011,5.41703
250.00,380.712,5.41703
252.00,381.407,5.41669
254.00,382.1,5.41669
256.00,382.795,5.41501
258.00,383.489,5.41568
260.00,384.182,5.41568
262.00,384.872,5.41704
264.00,385.561,5.41704
266.00,386.248,5.41704
268.00,386.932,5.41636
270.00,387.6141,5.41636
272.00,388.297,5.41568
274.00,388.981,5.41568
276.00,389.667,5.41704
278.00,390.3498,5.41704
280.00,391.03,5.41963
282.00,391.706,5.42493
284.00,392.382,5.42143
286.00,393.056,5.40757
288.00,393.7317,5.40554
290.00,394.407,5.40791
292.00,395.082,5.41174
294.00,395.757,5.41106
296.00,396.432,5.41139
298.00,397.109,5.41173
300.00,397.783,5.41173
302.00,398.456,5.41309
304.00,399.1272,5.41309
306.00,399.8,5.41309
308.00,400.473,5.41173
310.00,401.145,5.41173
312.00,401.814,5.41309
314.00,402.482,5.41343
316.00,403.151,5.41343
318.00,403.823,5.41343
320.00,404.495,5.41343
322.00,405.167,5.41072
324.00,405.839,5.41072
326.00,406.509,5.4123
328.00,407.179,5.4123
330.00,407.849,5.4123
332.00,408.519,5.41095
334.00,409.188,5.41095
336.00,409.859,5.4096
338.00,410.5279,5.4096
340.00,411.196,5.4096
342.00,411.864,5.4096
344.00,412.534,5.41095
346.00,413.204,5.41061
348.00,413.875,5.40993
350.00,414.544,5.40813
352.00,415.213,5.40666
354.00,415.884,5.40531
356.00,416.555,5.4043
358.00,417.224,5.40565
360.00,417.892,5.40565
362.00,418.558,5.40633
364.00,419.226,5.40633
366.00,419.894,5.40531
368.00,420.564,5.40531
370.00,421.232,5.40599
372.00,421.902,5.40599
374.00,422.57,5.40407
376.00,423.24,5.40181
378.00,423.91,5.40148
380.00,424.58,5.40046
382.00,425.252,5.40046
384.00,425.92,5.40046
386.00,426.587,5.39911
388.00,427.253,5.39911
390.00,427.92,5.39945
392.00,428.586,5.39843
394.00,429.252,5.39843
396.00,429.921,5.39832
398.00,430.587,5.39798
400.00,431.2552,5.39596
402.00,431.919,5.39562
404.00,432.5849,5.39562
406.00,433.252,5.39562
408.00,433.919,5.39494
410.00,434.586,5.39494
412.00,435.249,5.39561
414.00,435.914,5.39561
416.00,436.579,5.39314
418.00,437.244,5.3928
420.00,437.908,5.3928
422.00,438.57,5.3901
424.00,439.232,5.3901
426.00,439.894,5.38875
428.00,440.5562,5.38875
430.00,441.217,5.38875
432.00,441.88,5.38739
434.00,442.544,5.38739
436.00,443.207,5.38672
438.00,443.869,5.38604
440.00,444.529,5.38321
442.00,445.192,5.38321
444.00,445.857,5.38356
446.00,446.521,5.38322
448.00,447.184,5.38355
450.00,447.848,5.38288
452.00,448.512,5.38254
454.00,449.178,5.38119
456.00,449.843,5.37995
458.00,450.506,5.37714
460.00,451.1678,5.37499
462.00,451.832,5.3742
464.00,452.4972,5.37285
466.00,453.164,5.37138
468.00,453.831,5.37138
470.00,454.498,5.37127
472.00,455.165,5.37352
474.00,455.829,5.37555
476.00,456.494,5.368
478.00,457.16,5.36473
480.00,457.826,5.35706
482.00,458.494,5.35086
484.00,459.163,5.35414
486.00,459.832,5.35391
488.00,460.4997,5.35052
490.00,461.1661,5.34726
492.00,461.834,5.34703
494.00,462.502,5.34636
496.00,463.171,5.3459
498.00,463.841,5.34692
500.00,464.511,5.34614
502.00,465.18,5.34354
504.00,465.848,5.34184
506.00,466.514,5.33892
508.00,467.181,5.33644
510.00,467.849,5.33667
512.00,468.518,5.33554
514.00,469.188,5.33171
516.00,469.856,5.3273
518.00,470.5221,5.32561
520.00,471.186,5.32347
522.00,471.851,5.32348
524.00,472.5182,5.3219
526.00,473.187,5.31874
528.00,473.858,5.31648
530.00,474.525,5.31694
532.00,475.194,5.31559
534.00,475.861,5.31254
536.00,476.528,5.30916
538.00,477.197,5.30758
540.00,477.865,5.306
542.00,478.534,5.30465
544.00,479.2,5.3033
546.00,479.865,5.30273
548.00,480.531,5.30172
550.00,481.2,5.30037
552.00,481.8679,5.29879
554.00,482.534,5.29619
556.00,483.199,5.29248
558.00,483.864,5.29034
560.00,484.5301,5.28808
562.00,485.192,5.28582
564.00,485.856,5.28379
566.00,486.521,5.28267
568.00,487.188,5.28064
570.00,487.852,5.28052
572.00,488.517,5.28188
574.00,489.184,5.29022
576.00,489.8532,5.28391
578.00,490.519,5.26779
580.00,491.185,5.25809
582.00,491.85,5.25325
584.00,492.517,5.25629
586.00,493.182,5.25607
588.00,493.847,5.25607
590.00,494.51,5.25595
592.00,495.1768,5.25505
594.00,495.84,5.25291
596.00,496.504,5.25133
598.00,497.1657,5.24704
600.00,497.831,5.24513
602.00,498.497,5.24445
604.00,499.1653,5.24389
606.00,499.832,5.24164
608.00,500.496,5.24006
610.00,501.161,5.2386
612.00,501.826,5.23713
614.00,502.495,5.23567
616.00,503.16,5.23499
618.00,503.827,5.23397
620.00,504.492,5.23262
622.00,505.157,5.23003
624.00,505.826,5.2272
626.00,506.491,5.2272
628.00,507.158,5.22619
630.00,507.824,5.22653
632.00,508.489,5.22721
634.00,509.154,5.22676
636.00,509.817,5.2271
638.00,510.484,5.22574
640.00,511.149,5.22574
642.00,511.8153,5.22472
644.00,512.481,5.22304
646.00,513.148,5.22237
648.00,513.813,5.22067
650.00,514.478,5.21931
652.00,515.1438,5.21898
654.00,515.8089,5.21898
656.00,516.4737,5.21898
658.00,517.139,5.21796
660.00,517.8039,5.21762
662.00,518.47,5.21762
664.00,519.135,5.21627
666.00,519.8013,5.21627
668.00,520.467,5.21627
670.00,521.135,5.21492
672.00,521.803,5.21492
674.00,522.472,5.21289
676.00,523.139,5.21222
678.00,523.805,5.21222
680.00,524.473,5.2112
682.00,525.142,5.21255
684.00,525.813,5.21221
686.00,526.476,5.21221
688.00,527.141,5.21086
690.00,527.805,5.21086
692.00,528.475,5.20951
694.00,529.143,5.20951
696.00,529.809,5.20748
698.00,530.474,5.20647
700.00,531.14,5.20545
702.00,531.807,5.20444
704.00,532.478,5.2041
706.00,533.148,5.20343
708.00,533.817,5.20275
710.00,534.482,5.20275
712.00,535.15,5.20004
714.00,535.818,5.19902
716.00,536.49,5.19868
718.00,537.159,5.19632
720.00,537.827,5.19632
722.00,538.495,5.19497
724.00,539.159,5.19339
726.00,539.826,5.19486
728.00,540.494,5.19351
730.00,541.163,5.19351
732.00,541.831,5.19079
734.00,542.498,5.18978
736.00,543.165,5.1873
738.00,543.832,5.18663
740.00,544.497,5.18685
742.00,545.161,5.18674
744.00,545.828,5.18527
746.00,546.4939,5.18459
748.00,547.1639,5.18392
750.00,547.832,5.18122
752.00,548.4991,5.17975
754.00,549.161,5.17817
756.00,549.824,5.17659
758.00,550.4871,5.17502
760.00,551.152,5.1722
762.00,551.817,5.17186
764.00,552.484,5.16949
766.00,553.151,5.16668
768.00,553.8167,5.16566
770.00,554.482,5.16577
772.00,555.147,5.16509
774.00,555.813,5.16318
776.00,556.478,5.15969
778.00,557.145,5.15552
780.00,557.809,5.15394
782.00,558.474,5.15236
784.00,559.139,5.14966
786.00,559.803,5.14661
788.00,560.467,5.14357
790.00,561.131,5.14143
792.00,561.795,5.13726
794.00,562.46,5.13466
796.00,563.124,5.13421
798.00,563.79,5.13308
800.00,564.454,5.13196
802.00,565.12,5.12745
804.00,565.783,5.12519
806.00,566.449,5.1217
808.00,567.112,5.11876
810.00,567.777,5.1128
812.00,568.443,5.1093
814.00,569.107,5.10626
816.00,569.769,5.10288
818.00,570.4301,5.09802
820.00,571.096,5.0943
822.00,571.762,5.09058
824.00,572.426,5.08641
826.00,573.091,5.08348
828.00,573.7562,5.0801
830.00,574.4238,5.0748
832.00,575.09,5.07007
834.00,575.753,5.06567
836.00,576.416,5.06229
838.00,577.079,5.05958
840.00,577.744,5.05586
842.00,578.4101,5.05
844.00,579.077,5.04482
846.00,579.745,5.03986
848.00,580.413,5.0358
850.00,581.079,5.0323
852.00,581.745,5.02802
854.00,582.407,5.02306
856.00,583.075,5.01844
858.00,583.74,5.01518
860.00,584.406,5.00898
862.00,585.071,5.00604
864.00,585.737,5.00356
866.00,586.403,4.99747
868.00,587.0701,4.9915
870.00,587.736,4.98463
872.00,588.401,4.97504
874.00,589.065,4.96423
876.00,589.73,4.95081
878.00,590.397,4.95137
880.00,591.063,4.95712
882.00,591.73,4.95058
884.00,592.397,4.94292
886.00,593.0653,4.93694
888.00,593.733,4.93187
890.00,594.4,4.92973
892.00,595.065,4.92296
894.00,595.7302,4.91395
896.00,596.396,4.90594
898.00,597.062,4.89907
900.00,597.727,4.89039
902.00,598.394,4.88069
904.00,599.06,4.87201
906.00,599.7282,4.86468
908.00,600.396,4.85387
910.00,601.063,4.8453
912.00,601.728,4.83493
914.00,602.39,4.82614
916.00,603.052,4.81498
918.00,603.718,4.80235
920.00,604.387,4.78927
922.00,605.056,4.77935
924.00,605.722,4.76706
926.00,606.386,4.75726
928.00,607.0488,4.74238
930.00,607.713,4.72986
932.00,608.379,4.71758
934.00,609.044,4.7124
936.00,609.708,4.70293
938.00,610.371,4.67802
940.00,611.039,4.65355
942.00,611.705,4.63022
944.00,612.369,4.61083
946.00,613.031,4.60012
948.00,613.697,4.58299
950.00,614.364,4.56586
952.00,615.033,4.54522
954.00,615.698,4.52697
956.00,616.363,4.50453
958.00,617.025,4.48514
960.00,617.689,4.46598
962.00,618.3519,4.45234
964.00,619.017,4.41503
966.00,619.683,4.37512
968.00,620.347,4.34829
970.00,621.012,4.32789
972.00,621.676,4.30073
974.00,622.342,4.27626
976.00,623.01,4.24425
978.00,623.674,4.21652
980.00,624.338,4.18124
982.00,625.001,4.15024
984.00,625.663,4.11462
986.00,626.326,4.08294
988.00,626.99,4.04495
990.00,627.654,4.01237
992.00,628.3202,3.97383
994.00,628.986,3.93821
996.00,629.652,3.89661
998.00,630.315,3.86144
1000.00,630.98,3.81669
1002.00,631.643,3.77486
1004.00,632.309,3.72707
1006.00,632.9713,3.68672
1008.00,633.638,3.63825
1010.00,634.3007,3.59575
1012.00,634.9658,3.54705
1014.00,635.631,3.49813
1016.00,636.298,3.44402
1018.00,636.963,3.39836
1020.00,637.63,3.33208
1022.00,638.296,3.28609
1024.00,638.963,3.25318
1026.00,639.628,3.20685
1028.00,640.294,3.14417
1030.00,640.959,3.09074
1032.00,641.623,3.03235
1034.00,642.288,2.97903
1036.00,642.954,2.9114
1038.00,643.62,2.86316
1040.00,644.287,2.80995
1042.00,644.955,2.75889
1044.00,645.624,2.69554
1046.00,646.291,2.6438
1048.00,646.958,2.58247
1050.00,647.625,2.52622
1052.00,648.2939,2.46219
1054.00,648.963,2.40797
1056.00,649.6312,2.34473
1058.00,650.3,2.29131
1060.00,650.9679,2.2301
1062.00,651.635,2.17745
1064.00,652.299,2.115
1066.00,652.965,2.06078
1068.00,653.634,1.99811
1070.00,654.304,1.94468
1072.00,654.974,1.88504
1074.00,655.643,1.83083
1076.00,656.31,1.76973
1078.00,656.98,1.71957
1080.00,657.65,1.66445
1082.00,658.321,1.61293
1084.00,658.991,1.55465
1086.00,659.662,1.50145
1088.00,660.331,1.44305
1090.00,660.997,1.39695
1092.00,661.665,1.33945
1094.00,662.335,1.28017
1096.00,663.006,1.21749
1098.00,663.675,1.16631
1100.00,664.343,1.10759
1102.00,665.013,1.05754
1104.00,665.682,1.00219
1106.00,666.351,0.9566502
1108.00,667.019,0.9057
1110.00,667.689,0.8622999
1112.00,668.36,0.8131398
1114.00,669.032,0.77234
1116.00,669.703,0.72647
1118.00,670.374,0.6881402
1120.00,671.045,0.64812
1122.00,671.7129,0.61318
1124.00,672.382,0.57282
1126.00,673.053,0.5396798
1128.00,673.725,0.5066501
1130.00,674.396,0.4789202
1132.00,675.067,0.446
1134.00,675.7371,0.41862
1136.00,676.407,0.3876202
1138.00,677.077,0.3649602
1140.00,677.747,0.3376802
1142.00,678.418,0.31468
1144.00,679.0869,0.29044
1146.00,679.755,0.2711698
1148.00,680.422,0.2513302
1150.00,681.09,0.23261
1152.00,681.76,0.21402
1154.00,682.428,0.19598
1156.00,683.097,0.17648
1158.00,683.7651,0.1613799
1160.00,684.433,0.14526
1162.00,685.098,0.13376
1164.00,685.765,0.12181
1166.00,686.433,0.1118898
1168.00,687.1,0.09982995
1170.00,687.765,0.08991015
1172.00,688.43,0.0784201
1174.00,689.095,0.06837985
1176.00,689.76,0.05834015
1178.00,690.425,0.0514701
1180.00,691.09,0.0434599
1182.00,691.754,0.03546015
1184.00,692.4192,0.0288101
1186.00,693.086,0.02216005
1188.00,693.752,0.01765995
1190.00,694.418,0.01247015
1192.00,695.081,0.0047025
1194.00,695.745,-0.0014025
1196.00,696.408,-0.00612975
1198.00,697.072,-0.01063975
1200.00,697.735,-1.19E-02
1202.00,698.398,-1.53E-02
1204.00,699.062,-1.90E-02
1206.00,699.727,-2.16E-02
1208.00,700.393,-2.48E-02
1210.00,701.06,-2.80E-02
1212.00,701.723,-3.11E-02
1214.00,702.387,-3.22E-02
1216.00,703.048,-3.39E-02
1218.00,703.7108,-3.54E-02
1220.00,704.373,-3.71E-02
1222.00,705.037,-3.93E-02
1224.00,705.702,-4.09E-02
1226.00,706.366,-4.46E-02
1228.00,707.029,-4.70E-02
1230.00,707.69,-4.83E-02
1232.00,708.351,-4.83E-02
1234.00,709.011,-4.99E-02
1236.00,709.673,-5.14E-02
1238.00,710.339,-0.0524601
1240.00,711.005,-0.0531399
1242.00,711.671,-0.0531399
1244.00,712.337,-0.0522302
1246.00,713.004,-0.05132985
1248.00,713.667,-0.0524601
1250.00,714.332,-0.05438015
1252.00,714.997,-0.05572985
1254.00,715.662,-0.0567402
1256.00,716.328,-0.0570801
1258.00,716.993,-0.0584298
1260.00,717.659,-0.0584298
1262.00,718.324,-0.05978005
1264.00,718.989,-0.0582098
1266.00,719.659,-0.0582098
1268.00,720.322,-0.0582098
1270.00,720.9841,-0.0568502
1272.00,721.643,-0.0568502
1274.00,722.307,-0.0583198
1276.00,722.973,-0.05967005
1278.00,723.639,-0.0610302
1280.00,724.305,-0.05956995
1282.00,724.968,-0.05956995
1284.00,725.632,-0.05956995
1286.00,726.2961,-0.05956995
1288.00,726.962,-0.05855025
1290.00,727.628,-0.05855025
1292.00,728.295,-0.05855025
1294.00,728.961,-0.05855025
1296.00,729.6271,-0.05855025
1298.00,730.292,-0.05855025
1300.00,730.958,-0.0582098
1302.00,731.623,-0.0582098
1304.00,732.288,-0.0578699
1306.00,732.9549,-0.0578699
1308.00,733.621,-0.0578699
1310.00,734.287,-0.0578699
1312.00,734.954,-0.05923005
1314.00,735.624,-0.05923005
1316.00,736.293,-0.05923005
1318.00,736.961,-0.05923005
1320.00,737.628,-0.05923005
1322.00,738.296,-0.06057975
1324.00,738.966,-0.06057975
1326.00,739.634,-0.05866025
1328.00,740.301,-0.0576499
1330.00,740.967,-0.0576499
1332.00,741.632,-0.0576499
1334.00,742.299,-0.05923005
1336.00,742.966,-0.06057975
1338.00,743.633,-0.05989995
1340.00,744.301,-0.05956005
1342.00,744.967,-0.05922015
1344.00,745.635,-0.05922015
1346.00,746.302,-0.06057975
1348.00,746.97,-0.06057975
1350.00,747.638,-0.06193
1352.00,748.304,-0.06193
1354.00,748.97,-0.0584298
1356.00,749.638,-0.05527995
1358.00,750.305,-0.0567402
1360.00,750.971,-0.06373015
1362.00,751.635,-0.06485985
1364.00,752.301,-0.0612502
1366.00,752.967,-0.0577599
1368.00,753.6321,-0.05527995
1370.00,754.2981,-0.0568601
1372.00,754.966,-0.06011995
1374.00,755.633,-0.0613602
1376.00,756.2991,-0.0613602
1378.00,756.965,-0.06023985
1380.00,757.632,-0.05866025
1382.00,758.298,-0.05764
1384.00,758.964,-0.05764
1386.00,759.629,-0.05764
1388.00,760.296,-0.05900015
1390.00,760.963,-0.05900015
1392.00,761.631,-0.05900015
1394.00,762.298,-0.05900015
1396.00,762.965,-0.05967005
1398.00,763.629,-0.06000995
1400.00,764.2972,-0.0609202
1402.00,764.963,-0.0612502
1404.00,765.6311,-0.05978995
1406.00,766.2932,-0.05978995
1408.00,766.959,-0.05978995
1410.00,767.623,-0.05978995
1412.00,768.289,-0.0565202
1414.00,768.954,-0.0520102
1416.00,769.618,-0.03600025
1418.00,770.284,-0.04670985
1420.00,770.95,-0.0668899
1422.00,771.617,-0.06507985
1424.00,772.281,-0.0715099
1426.00,772.946,-0.0715099
1428.00,773.613,-0.06429005
1430.00,774.281,-0.0580998
1432.00,774.95,-0.0531399
1434.00,775.615,-0.05594985
1436.00,776.282,-0.0578699
1438.00,776.949,-0.05989995
1440.00,777.614,-0.0671099
1442.00,778.279,-0.06802015
1444.00,778.9436,-0.05561985
1446.00,779.608,-0.05054005
1448.00,780.2729,-0.04953025
1450.00,780.938,-0.04953025
1452.00,781.606,-0.05382025
1454.00,782.274,-0.06057975
1456.00,782.941,-0.0627198
1458.00,783.606,-0.0627198
1460.00,784.271,-0.06440995
1462.00,784.936,-0.06407005
1464.00,785.605,-0.0621599
1466.00,786.272,-0.0614801
1468.00,786.94,-0.05989995
1470.00,787.608,-0.05923005
1472.00,788.2757,-0.06057975
1474.00,788.945,-0.06057975
1476.00,789.611,-0.06057975
1478.00,790.278,-0.06057975
1480.00,790.941,-0.05989995
1482.00,791.605,-0.05989995
1484.00,792.27,-0.05989995
1486.00,792.9359,-0.05922015
1488.00,793.604,-0.05922015
1490.00,794.272,-0.05922015
1492.00,794.9387,-0.05922015
1494.00,795.603,-0.05922015
1496.00,796.271,-0.06057975
1498.00,796.94,-0.06193
1500.00,797.61,-0.0612502
1502.00,798.279,-0.06056985
1504.00,798.949,-0.06056985
1506.00,799.617,-0.05922015
1508.00,800.284,-0.0585398
1510.00,800.951,-0.05877025
1512.00,801.617,-0.0580998
1514.00,802.285,-0.0580998
1516.00,802.951,-0.05923005
1518.00,803.615,-0.05967995
1520.00,804.28,-0.05967995
1522.00,804.945,-0.0610302
1524.00,805.612,-0.0610302
1526.00,806.281,-0.05945005
1528.00,806.95,-0.05945005
1530.00,807.618,-0.05945005
1532.00,808.284,-0.06012985
1534.00,808.951,-0.0608102
1536.00,809.619,-0.0608102
1538.00,810.288,-0.0614801
1540.00,810.957,-0.0621599
1542.00,811.625,-0.05923005
1544.00,812.296,-0.0582098
1546.00,812.965,-0.05617975
1548.00,813.632,-0.05550985
1550.00,814.298,-0.05483005
1552.00,814.963,-0.0568601
1554.00,815.6285,-0.0583198
1556.00,816.296,-0.05911015
1558.00,816.961,-0.05911015
1560.00,817.626,-0.05911015
1562.00,818.292,-0.05911015
1564.00,818.958,-0.05978995
1566.00,819.626,-0.06045985
1568.00,820.292,-0.06045985
1570.00,820.958,-0.06045985
1572.00,821.621,-0.06045985
1574.00,822.288,-0.05911015
1576.00,822.954,-0.05911015
1578.00,823.621,-0.05753
1580.00,824.288,-0.05617975
1582.00,824.954,-0.05483005
1584.00,825.621,-0.05483005
1586.00,826.288,-0.05866025
1588.00,826.955,-0.0614801
1590.00,827.62,-0.06451995
1592.00,828.285,-0.06519975
1594.00,828.95,-0.06374005
1596.00,829.618,-0.0620499
1598.00,830.284,-0.0620499
1600.00,830.952,-0.06306025
1602.00,831.616,-0.06340015
1604.00,832.283,-0.06474985
1606.00,832.948,-0.06396005
1608.00,833.6157,-0.06193
1610.00,834.2827,-0.0616
1612.00,834.948,-0.0616
1614.00,835.611,-0.06295025
1616.00,836.273,-0.0615901
1618.00,836.936,-0.06056985
1620.00,837.6032,-0.05990985
1622.00,838.27,-0.05889015
1624.00,838.938,-0.0575399
1626.00,839.605,-0.0575399
1628.00,840.273,-0.05889015
1630.00,840.941,-0.05956995
1632.00,841.607,-0.06023985
1634.00,842.274,-0.06056985
1636.00,842.939,-0.0615901
1638.00,843.61,-0.0615901
1640.00,844.279,-0.06046975
1642.00,844.948,-0.0582098
1644.00,845.609,-0.05404025
1646.00,846.272,-0.04953025
1648.00,846.937,-0.05494005
1650.00,847.604,-0.06429995
1652.00,848.27,-0.06936985
1654.00,848.937,-0.06497975
1656.00,849.606,-0.0609202
1658.00,850.276,-0.06022995
1660.00,850.945,-0.06056985
1662.00,851.612,-0.06090975
1664.00,852.278,-0.0624899
1666.00,852.944,-0.0624899
1668.00,853.61,-0.05956005
1670.00,854.2767,-0.05572985
1672.00,854.944,-0.05572985
1674.00,855.614,-0.05572985
1676.00,856.2811,-0.0570801
1678.00,856.947,-0.05889015
1680.00,857.612,-5.99E-02
1682.00,858.279,-5.99E-02
1684.00,858.947,-6.13E-02
1686.00,859.613,-6.26E-02
1688.00,860.28,-6.26E-02
1690.00,860.9471,-6.13E-02
1692.00,861.614,-6.13E-02
1694.00,862.28,-6.32E-02
1696.00,862.946,-6.43E-02
1698.00,863.613,-6.43E-02
1700.00,864.28,-6.23E-02
1702.00,864.947,-6.19E-02
1704.00,865.613,-6.16E-02
1706.00,866.279,-6.17E-02
1708.00,866.947,-6.03E-02
1710.00,867.614,-5.97E-02
1712.00,868.283,-5.93E-02
1714.00,868.95,-5.88E-02
1716.00,869.616,-5.72E-02
1718.00,870.28,-5.68E-02
1720.00,870.945,-5.54E-02
1722.00,871.612,-5.57E-02
1724.00,872.279,-5.69E-02
1726.00,872.946,-5.35E-02
1728.00,873.612,-4.57E-02
1730.00,874.279,-4.36E-02
1732.00,874.947,-5.39E-02
1734.00,875.615,-6.50E-02
1736.00,876.282,-7.20E-02
1738.00,876.949,-6.77E-02
1740.00,877.6157,-6.07E-02
1742.00,878.282,-5.52E-02
1744.00,878.948,-4.61E-02
1746.00,879.614,-6.47E-02
1748.00,880.282,-8.13E-02
1750.00,880.951,-7.99E-02
1752.00,881.62,-7.03E-02
1754.00,882.288,-6.00E-02
1756.00,882.957,-5.66E-02
1758.00,883.625,-5.66E-02
1760.00,884.293,-5.66E-02
1762.00,884.96,-6.11E-02
1764.00,885.627,-6.34E-02
1766.00,886.292,-6.17E-02
1768.00,886.958,-6.02E-02
1770.00,887.625,-5.84E-02
1772.00,888.293,-5.13E-02
1774.00,888.96,-3.66E-02
1776.00,889.6268,-4.10E-02
1778.00,890.294,-6.95E-02
1780.00,890.961,-6.85E-02
1782.00,891.629,-6.30E-02
1784.00,892.296,-6.07E-02
1786.00,892.963,-5.22E-02
1788.00,893.63,-2.60E-02
1790.00,894.297,-3.18E-02
1792.00,894.965,-6.15E-02
1794.00,895.634,-8.77E-02
1796.00,896.301,-7.78E-02
1798.00,896.968,-6.23E-02
1800.00,897.635,-3.17E-02
1802.00,898.304,-4.46E-02
1804.00,898.971,-7.89E-02
1806.00,899.638,-8.31E-02
1808.00,900.304,-7.57E-02
1810.00,900.972,-6.80E-02
1812.00,901.635,-6.66E-02
1814.00,902.3,-6.59E-02
1816.00,902.966,-6.49E-02
1818.00,903.635,-6.39E-02
1820.00,904.304,-6.13E-02
1822.00,904.97,-5.93E-02
1824.00,905.639,-5.91E-02
1826.00,906.308,-5.81E-02
1828.00,906.976,-5.81E-02
1830.00,907.645,-5.97E-02
1832.00,908.31,-6.13E-02
1834.00,908.976,-6.13E-02
1836.00,909.641,-6.13E-02
1838.00,910.306,-6.26E-02
1840.00,910.971,-6.40E-02
1842.00,911.638,-6.40E-02
1844.00,912.305,-6.26E-02
1846.00,912.973,-6.40E-02
1848.00,913.638,-6.40E-02
1850.00,914.303,-6.40E-02
1852.00,914.97,-6.40E-02
1854.00,915.637,-6.27E-02
1856.00,916.306,-6.16E-02
1858.00,916.973,-6.06E-02
1860.00,917.641,-6.06E-02
1862.00,918.305,-0.05606975
1864.00,918.971,-0.04219985
1866.00,919.636,-0.0399498
1868.00,920.304,-0.0703802
1870.00,920.972,-0.0764698
1872.00,921.639,-0.07714025
1874.00,922.307,-0.0747802
1876.00,922.974,-0.0702702
1878.00,923.64,-0.06552975
1880.00,924.3058,-0.0613602
1882.00,924.976,-0.0613602
1884.00,925.644,-0.06034985
1886.00,926.312,-0.06034985
1888.00,926.975,-0.06034985
1890.00,927.64,-0.06034985
1892.00,928.306,-0.0613701
1894.00,928.972,-0.06068975
1896.00,929.64,-0.0582098
1898.00,930.306,-0.0568601
1900.00,930.972,-0.0572
1902.00,931.637,-0.05866025
1904.00,932.303,-0.05934005
1906.00,932.969,-0.05505995
1908.00,933.636,-0.05438015
1910.00,934.302,-0.0580998
1912.00,934.969,-0.06474985
1914.00,935.636,-0.06981975
1916.00,936.305,-0.0655402
1918.00,936.974,-0.06182
1920.00,937.642,-0.0608102
1922.00,938.308,-0.05088985
1924.00,938.975,-0.04186985
1926.00,939.642,-0.06034985
1928.00,940.308,-0.06768025
1930.00,940.975,-0.06813015
1932.00,941.642,-0.06317025
1934.00,942.311,-0.0577599
1936.00,942.979,-0.0578699
1938.00,943.647,-0.0625999
1940.00,944.313,-0.0612502
1942.00,944.981,-0.0566302
1944.00,945.646,-0.0538098
1946.00,946.314,-0.05583985
1948.00,946.98,-0.05888025
1950.00,947.649,-0.06090975
1952.00,948.316,-0.0624899
1954.00,948.983,-0.06396005
1956.00,949.648,-0.06496985
1958.00,950.314,-0.06530975
1960.00,950.982,-0.06666
1962.00,951.6479,-0.06462995
1964.00,952.3145,-0.0622699
1966.00,952.9792,-0.0612502
1968.00,953.646,-0.05923005
1970.00,954.313,-0.05855025
1972.00,954.981,-0.05989995
1974.00,955.648,-0.06057975
1976.00,956.316,-0.06057975
1978.00,956.981,-0.06057975
1980.00,957.65,-0.06057975
1982.00,958.318,-0.05889015
1984.00,958.987,-0.05709
1986.00,959.652,-0.05550985
1988.00,960.319,-0.05404025
1990.00,960.986,-0.05505005
1992.00,961.654,-0.0566302
1994.00,962.32,-0.05878015
1996.00,962.9877,-0.05878015
1998.00,963.6548,-0.0572
2000.00,964.323,-0.05527995
2002.00,964.99,-0.05382025
2004.00,965.657,-0.0576499
2006.00,966.326,-0.0613602
2008.00,966.994,-0.0617001
2010.00,967.6632,-0.0627198
2012.00,968.33,-0.0627198
2014.00,968.999,-0.06056985
2016.00,969.666,-0.05956005
2018.00,970.332,-0.05956005
2020.00,971,-0.05989995
2022.00,971.668,-0.0612502
2024.00,972.3349,-0.0612502
2026.00,973.001,-0.06034985
2028.00,973.668,-0.05742
2030.00,974.338,-0.05606975
2032.00,975.005,-0.05606975
2034.00,975.67,-0.05449015
2036.00,976.3358,-0.05415025
2038.00,977.004,-0.05415025
2040.00,977.674,-0.05549995
2042.00,978.3432,-0.05549995
2044.00,979.009,-0.05549995
2046.00,979.672,-0.0578699
2048.00,980.336,-0.0613701
2050.00,981.002,-0.06171
2052.00,981.67,-0.06171
2054.00,982.337,-0.06171
2056.00,983.006,-0.06035975
2058.00,983.674,-0.06035975
2060.00,984.343,-0.06035975
2062.00,985.01,-0.06035975
2064.00,985.678,-0.05900015
2066.00,986.345,-0.06034985
2068.00,987.012,-0.05900015
2070.00,987.6776,-0.05900015
2072.00,988.344,-0.05900015
2074.00,989.009,-0.05471015
2076.00,989.6769,-0.0494098
2078.00,990.342,-0.0476102
2080.00,991.008,-0.05043005
2082.00,991.674,-0.0563002
2084.00,992.34,-0.06012985
2086.00,993.0062,-0.06317025
2088.00,993.672,-0.0629398
2090.00,994.34,-0.06193
2092.00,995.008,-0.0615901
2094.00,995.6756,-0.0615901
2096.00,996.341,-0.06193
2098.00,997.008,-0.0629398
2100.00,997.674,-0.0613701
2102.00,998.3412,-0.05978995
2104.00,999.006,-0.05978995
2106.00,999.673,-0.0611402
2108.00,1000.34,-0.05978995
2110.00,1001.01,-0.05978995
2112.00,1001.68,-0.05877025
2114.00,1002.34,-0.05911015
2116.00,1003.01,-0.06034985
2118.00,1003.68,-0.0579799
2120.00,1004.34,-0.05900015
2122.00,1005.01,-0.05866025
2124.00,1005.68,-0.05594985
2126.00,1006.34,-0.0526801
2128.00,1007.01,-0.05121985
2130.00,1007.67,-0.05121985
2132.00,1008.34,-0.05121985
2134.00,1009.01,-0.05121985
2136.00,1009.68,-0.0540298
2138.00,1010.34,-0.0569701
2140.00,1011.01,-0.06090975
2142.00,1011.68,-0.06215
2144.00,1012.34,-0.05956005
2146.00,1013.01,-0.05956005
2148.00,1013.68,-0.05956005
2150.00,1014.34,-0.05956005
2152.00,1015.01,-0.0626098
2154.00,1015.68,-0.0626098
2156.00,1016.34,-0.0568502
2158.00,1017.01,-0.05291
2160.00,1017.68,-0.05527995
2162.00,1018.34,-0.06034985
2164.00,1019.01,-0.0623898
2166.00,1019.68,-0.06012985
2168.00,1020.35,-0.0568601
2170.00,1021.02,-0.0568601
2172.00,1021.68,-0.0561902
2174.00,1022.35,-0.05595975
2176.00,1023.02,-0.05527995
2178.00,1023.69,-0.0577599
2180.00,1024.35,-0.05934005
2182.00,1025.02,-0.05967995
2184.00,1025.69,-0.05538995
2186.00,1026.36,-0.05133975
2188.00,1027.02,-0.0532499
2190.00,1027.69,-0.0577599
2192.00,1028.36,-0.05967995
2194.00,1029.03,-0.06000995
2196.00,1029.7,-0.05934005
2198.00,1030.36,-0.0583198
2200.00,1031.03,-0.0583198
2202.00,1031.7,-0.05945005
2204.00,1032.36,-0.0614801
2206.00,1033.03,-0.06068975
2208.00,1033.7,-0.0565202
2210.00,1034.37,-0.05121985
2212.00,1035.03,-0.04851
2214.00,1035.7,-0.0524601
2216.00,1036.37,-0.05945005
2218.00,1037.04,-0.06396005
2220.00,1037.71,-0.0672199
2222.00,1038.37,-0.06407005
2224.00,1039.04,-0.05560995
2226.00,1039.71,-0.0491898
2228.00,1040.38,-0.0475002
2230.00,1041.05,-0.05121985
2232.00,1041.71,-0.05527995
2234.00,1042.38,-0.0575399
2236.00,1043.05,-0.05889015
2238.00,1043.72,-0.05889015
2240.00,1044.39,-0.05889015
2242.00,1045.05,-0.05889015
2244.00,1045.72,-0.05889015
2246.00,1046.38,-0.05889015
2248.00,1047.05,-0.05889015
2250.00,1047.72,-0.0572
2252.00,1048.39,-0.05561985
2254.00,1049.05,-0.0536998
2256.00,1049.72,-0.05065995
2258.00,1050.39,-0.05155975
2260.00,1051.06,-0.05483005
2262.00,1051.72,-0.05900015
2264.00,1052.39,-0.0626098
2266.00,1053.06,-0.06328025
2268.00,1053.73,-0.0617001
2270.00,1054.4,-0.06034985
2272.00,1055.06,-0.06034985
2274.00,1055.73,-0.05877025
2276.00,1056.39,-0.05742
2278.00,1057.06,-0.05742
2280.00,1057.73,-0.05572985
2282.00,1058.4,-0.0535898
2284.00,1059.07,-0.0525701
2286.00,1059.73,-0.05415025
2288.00,1060.4,-0.05549995
2290.00,1061.07,-0.05549995
2292.00,1061.74,-0.0539198
2294.00,1062.4,-0.0539198
2296.00,1063.07,-0.0539198
2298.00,1063.74,-0.0539198
2300.00,1064.4,-0.0569701
2302.00,1065.07,-0.05855025
2304.00,1065.74,-0.06034985
2306.00,1066.41,-0.06034985
2308.00,1067.08,-0.05538995
2310.00,1067.74,-0.0533698
2312.00,1068.4,-0.05572985
2314.00,1069.07,-0.06023985
2316.00,1069.73,-0.0583198
2318.00,1070.405,-0.05549995
2320.00,1071.07,-0.05404025
2322.00,1071.74,-0.04378
2324.00,1072.41,-0.04242975
2326.00,1073.07,-0.0750101
2328.00,1073.74,-0.08121025
2330.00,1074.41,-0.06440995
2332.00,1075.07,-0.05866025
2334.00,1075.74,-0.05933015
2336.00,1076.41,-0.0533599
2338.00,1077.07,-0.04704975
2340.00,1077.74,-0.0517902
2342.00,1078.41,-0.05527995
2344.00,1079.07,-0.05076995
2346.00,1079.74,-0.05110985
2348.00,1080.41,-0.0579898
2350.00,1081.07,-0.0621599
2352.00,1081.74,-0.05494995
2354.00,1082.41,-0.0523402
2356.00,1083.08,-0.0523402
2358.00,1083.74,-0.05494005
2360.00,1084.41,-0.05605985
2362.00,1085.08,-0.05054005
2364.00,1085.75,-0.04953025
2366.00,1086.41,-0.0524601
2368.00,1087.08,-0.05617975
2370.00,1087.75,-0.05967005
2372.00,1088.42,-0.0612502
2374.00,1089.08,-0.0622699
2376.00,1089.75,-0.0609202
2378.00,1090.42,-0.0579898
2380.00,1091.08,-0.0536998
2382.00,1091.75,-0.04931025
2384.00,1092.42,-0.04931025
2386.00,1093.09,-0.05110985
2388.00,1093.76,-0.0524601
2390.00,1094.43,-0.05404025
2392.00,1095.09,-0.05538995
2394.00,1095.76,-0.05538995
2396.00,1096.43,-0.0564102
2398.00,1097.09,-0.0583198
2400.00,1097.76,-0.0569701
2402.00,1098.43,-0.05877025
2404.00,1099.09,-0.0614801
2406.00,1099.76,-0.05967005
2408.00,1100.43,-0.0582098
2410.00,1101.1,-0.0570801
2412.00,1101.76,-0.05426025
2414.00,1102.43,-0.05594985
2416.00,1103.1,-0.06215
2418.00,1103.76,-0.06023985
2420.00,1104.43,-0.05753
2422.00,1105.09,-0.05742
2424.00,1105.76,-0.05438015
2426.00,1106.42,-0.0530299
2428.00,1107.09,-0.05606975
2430.00,1107.76,-0.05449015
2432.00,1108.42,-0.05449015
2434.00,1109.09,-0.05054995
2436.00,1109.76,-0.0426602
2438.00,1110.42,-0.02833985
2440.00,1111.09,-0.04007025
2442.00,1111.75,-0.06362015
2444.00,1112.42,-0.0757999
2446.00,1113.08,-0.07353995
2448.00,1113.75,-0.0624899
2450.00,1114.42,-0.0583198
2452.00,1115.09,-0.0579898
2454.00,1115.75,-0.05427015
2456.00,1116.42,-0.05427015
2458.00,1117.08,-0.0579898
2460.00,1117.749,-0.06001985
2462.00,1118.41,-0.0584298
2464.00,1119.08,-0.05482015
2466.00,1119.75,-0.05482015
2468.00,1120.41,-0.05764
2470.00,1121.08,-0.06090975
2472.00,1121.75,-0.05753
2474.00,1122.41,-0.05731
2476.00,1123.08,-0.0610302
2478.00,1123.75,-0.06339025
2480.00,1124.41,-0.05899025
2482.00,1125.08,-0.05291
2484.00,1125.75,-0.0479501
2486.00,1126.42,-0.04975025
2488.00,1127.09,-0.05505005
2490.00,1127.75,-0.05572985
2492.00,1128.42,-0.0568601
2494.00,1129.09,-0.05844025
2496.00,1129.76,-0.05911015
2498.00,1130.42,-0.0479501
2500.00,1131.09,-0.04085015
2502.00,1131.76,-0.0531399
2504.00,1132.42,-0.06508975
2506.00,1133.09,-0.06981975
2508.00,1133.76,-0.0662101
2510.00,1134.42,-0.06182
2512.00,1135.09,-0.05978995
2514.00,1135.76,-0.05087995
2516.00,1136.42,-0.04253975
2518.00,1137.09,-0.04491025
2520.00,1137.76,-0.04648985
2522.00,1138.43,-0.0484
2524.00,1139.09,-0.04976015
2526.00,1139.76,-0.0530299
2528.00,1140.43,-0.0571901
2530.00,1141.09,-0.05967005
2532.00,1141.76,-0.0610302
2534.00,1142.43,-0.0613602
2536.00,1143.09,-0.0583198
2538.00,1143.76,-0.04851
2540.00,1144.43,-0.04197985
2542.00,1145.09,-0.0443399
2544.00,1145.76,-0.04953025
2546.00,1146.43,-0.05945005
2548.00,1147.1,-0.0674498
2550.00,1147.77,-0.05911015
2552.00,1148.44,-0.0488499
2554.00,1149.1,-0.04658995
2556.00,1149.77,-0.0489599
2558.00,1150.44,-0.05415025
2560.00,1151.1,-0.05415025
2562.00,1151.77,-0.0523402
2564.00,1152.44,-0.04862
2566.00,1153.1,-0.0472802
2568.00,1153.77,-0.04625995
2570.00,1154.44,-0.05449015
2572.00,1155.1,-0.06306025
2574.00,1155.77,-0.0611402
2576.00,1156.44,-0.0566302
2578.00,1157.11,-0.05900015
2580.00,1157.77,-0.05878015
2582.00,1158.44,-0.05945005
2584.00,1159.1,-0.06079975
2586.00,1159.77,-0.05753
2588.00,1160.44,-0.05855025
2590.00,1161.11,-0.0565202
2592.00,1161.77,-0.05177975
2594.00,1162.44,-0.04625995
2596.00,1163.1,-0.0431002
2598.00,1163.77,-0.0486299
2600.00,1164.43,-0.05978995
2602.00,1165.1,-0.0580899
2604.00,1165.76,-0.05302
2606.00,1166.43,-0.05302
2608.00,1167.1,-0.05302
2610.00,1167.76,-0.05527995
2612.00,1168.43,-0.0528
2614.00,1169.1,-0.03578025
2616.00,1169.76,-0.05258
2618.00,1170.42,-0.06519975
2620.00,1171.09,-0.0672298
2622.00,1171.76,-0.06001985
2624.00,1172.43,-0.05709
2626.00,1173.1,-0.05889015
2628.00,1173.76,-0.0565202
2630.00,1174.43,-0.04942025
2632.00,1175.09,-0.0428802
2634.00,1175.76,-0.0309298
2636.00,1176.42,-0.0297
2638.00,1177.09,-0.05731
2640.00,1177.75,-0.06835015
2642.00,1178.42,-0.07230025
2644.00,1179.08,-0.0703901
2646.00,1179.75,-0.06396005
2648.00,1180.42,-0.05933015
2650.00,1181.08,-0.05900015
2652.00,1181.75,-0.05583985
2654.00,1182.42,-0.05269
2656.00,1183.08,-0.05065995
2658.00,1183.75,-0.05472005
2660.00,1184.41,-0.05709
2662.00,1185.08,-0.05594985
2664.00,1185.74,-0.0568601
2666.00,1186.41,-0.0566401
2668.00,1187.08,-0.0566401
2670.00,1187.74,-0.0534798
2672.00,1188.4,-0.0528
2674.00,1189.07,-0.05922015
2676.00,1189.73,-0.0622699
2678.00,1190.4,-0.05572985
2680.00,1191.06,-0.04536015
2682.00,1191.73,-0.04275975
2684.00,1192.39,-0.0446798
2686.00,1193.06,-0.04603005
2688.00,1193.73,-0.04536015
2690.00,1194.39,-0.05144975
2692.00,1195.06,-0.05866025
2694.00,1195.73,-0.05956995
2696.00,1196.39,-0.05393025
2698.00,1197.05,-0.0445698
2700.00,1197.72,-0.03329975
2702.00,1198.39,-0.01842005
2704.00,1199.05,-0.04659985
2706.00,1199.72,-0.0760199
2708.00,1200.384,-0.06914985
2710.00,1201.05,-0.0577599
2712.00,1201.71,-0.04208985
2714.00,1202.38,-0.0153802
2716.00,1203.05,-0.0209
2718.00,1203.72,-0.06362015
2720.00,1204.38,-0.07916975
2722.00,1205.05,-0.07420985
2724.00,1205.72,-0.06396005
2726.00,1206.39,-0.0566302
2728.00,1207.05,-0.05561985
2730.00,1207.72,-0.0582098
2732.00,1208.39,-0.06407005
2734.00,1209.05,-0.0659901
2736.00,1209.72,-0.06340015
2738.00,1210.39,-0.0576499
2740.00,1211.05,-0.0533698
2742.00,1211.72,-0.05021005
2744.00,1212.39,-0.04670985
2746.00,1213.06,-0.0441199
2748.00,1213.72,-0.04513025
2750.00,1214.39,-0.04715975
2752.00,1215.06,-0.0484
2754.00,1215.72,-0.0533599
2756.00,1216.39,-0.0569701
2758.00,1217.06,-0.05889015
2760.00,1217.73,-0.05415025
2762.00,1218.39,-0.0539198
2764.00,1219.06,-0.0623799
2766.00,1219.72,-0.05967005
2768.00,1220.39,-0.0478401
2770.00,1221.05,-0.0432102
2772.00,1221.72,-0.04829
2774.00,1222.39,-0.0612601