File: PMMA/Calibration_Results/NIST_FSRI/Sensitivity/NIST_FSRI_Gasification_q50_R3_Mass_simple_rho.csv
Time,Mass
[s],[g]
0.0,26.689
0.5,26.689
1.0,26.689
1.5,26.689
2.0,26.689
2.5,26.689
3.0,26.689
3.5,26.689
4.0,26.689
4.5,26.689
5.0,26.689
5.5,26.689
6.0,26.689
6.5,26.689
7.0,26.689
7.5,26.689
8.0,26.689
8.5,26.689
9.0,26.689
9.5,26.689
10.0,26.689
10.5,26.689
11.0,26.689
11.5,26.689
12.0,26.689
12.5,26.689
13.0,26.689
13.5,26.689
14.0,26.689
14.5,26.689
15.0,26.689
15.5,26.689
16.0,26.689
16.5,26.689
17.0,26.689
17.5,26.689
18.0,26.689
18.5,26.689
19.0,26.689
19.5,26.689
20.0,26.689
20.5,26.689
21.0,26.689
21.5,26.689
22.0,26.689
22.5,26.689
23.0,26.689
23.5,26.689
24.0,26.689
24.5,26.689
25.0,26.689
25.5,26.689
26.0,26.689
26.5,26.689
27.0,26.689
27.5,26.688
28.0,26.688
28.5,26.688
29.0,26.688
29.5,26.688
30.0,26.688
30.5,26.688
31.0,26.687
31.5,26.687
32.0,26.687
32.5,26.686
33.0,26.686
33.5,26.686
34.0,26.685
34.5,26.685
35.0,26.684
35.5,26.684
36.0,26.683
36.5,26.682
37.0,26.681
37.5,26.680
38.0,26.679
38.5,26.678
39.0,26.677
39.5,26.676
40.0,26.674
40.5,26.672
41.0,26.671
41.5,26.669
42.0,26.667
42.5,26.665
43.0,26.663
43.5,26.660
44.0,26.657
44.5,26.655
45.0,26.652
45.5,26.648
46.0,26.645
46.5,26.641
47.0,26.638
47.5,26.634
48.0,26.629
48.5,26.625
49.0,26.620
49.5,26.616
50.0,26.610
50.5,26.605
51.0,26.599
51.5,26.594
52.0,26.588
52.5,26.581
53.0,26.575
53.5,26.568
54.0,26.561
54.5,26.554
55.0,26.546
55.5,26.539
56.0,26.531
56.5,26.523
57.0,26.514
57.5,26.506
58.0,26.497
58.5,26.488
59.0,26.478
59.5,26.469
60.0,26.459
60.5,26.449
61.0,26.439
61.5,26.428
62.0,26.418
62.5,26.407
63.0,26.396
63.5,26.385
64.0,26.373
64.5,26.362
65.0,26.350
65.5,26.338
66.0,26.326
66.5,26.313
67.0,26.301
67.5,26.288
68.0,26.275
68.5,26.262
69.0,26.249
69.5,26.235
70.0,26.222
70.5,26.208
71.0,26.194
71.5,26.180
72.0,26.165
72.5,26.151
73.0,26.136
73.5,26.122
74.0,26.107
74.5,26.092
75.0,26.077
75.5,26.061
76.0,26.046
76.5,26.030
77.0,26.014
77.5,25.999
78.0,25.983
78.5,25.966
79.0,25.950
79.5,25.934
80.0,25.917
80.5,25.901
81.0,25.884
81.5,25.867
82.0,25.850
82.5,25.833
83.0,25.816
83.5,25.798
84.0,25.781
84.5,25.763
85.0,25.745
85.5,25.728
86.0,25.710
86.5,25.692
87.0,25.673
87.5,25.655
88.0,25.637
88.5,25.618
89.0,25.600
89.5,25.581
90.0,25.562
90.5,25.544
91.0,25.525
91.5,25.506
92.0,25.486
92.5,25.467
93.0,25.448
93.5,25.429
94.0,25.409
94.5,25.389
95.0,25.370
95.5,25.350
96.0,25.330
96.5,25.310
97.0,25.290
97.5,25.270
98.0,25.250
98.5,25.229
99.0,25.209
99.5,25.189
100.0,25.168
100.5,25.147
101.0,25.127
101.5,25.106
102.0,25.085
102.5,25.064
103.0,25.043
103.5,25.022
104.0,25.001
104.5,24.979
105.0,24.958
105.5,24.937
106.0,24.915
106.5,24.894
107.0,24.872
107.5,24.850
108.0,24.828
108.5,24.807
109.0,24.785
109.5,24.763
110.0,24.741
110.5,24.718
111.0,24.696
111.5,24.674
112.0,24.652
112.5,24.629
113.0,24.607
113.5,24.584
114.0,24.562
114.5,24.539
115.0,24.516
115.5,24.493
116.0,24.470
116.5,24.447
117.0,24.424
117.5,24.401
118.0,24.378
118.5,24.355
119.0,24.332
119.5,24.308
120.0,24.285
120.5,24.261
121.0,24.238
121.5,24.214
122.0,24.191
122.5,24.167
123.0,24.143
123.5,24.119
124.0,24.095
124.5,24.071
125.0,24.047
125.5,24.023
126.0,23.999
126.5,23.975
127.0,23.951
127.5,23.926
128.0,23.902
128.5,23.877
129.0,23.853
129.5,23.828
130.0,23.804
130.5,23.779
131.0,23.754
131.5,23.729
132.0,23.705
132.5,23.680
133.0,23.655
133.5,23.630
134.0,23.604
134.5,23.579
135.0,23.554
135.5,23.529
136.0,23.504
136.5,23.478
137.0,23.453
137.5,23.427
138.0,23.402
138.5,23.376
139.0,23.350
139.5,23.325
140.0,23.299
140.5,23.273
141.0,23.247
141.5,23.221
142.0,23.195
142.5,23.169
143.0,23.143
143.5,23.117
144.0,23.091
144.5,23.064
145.0,23.038
145.5,23.012
146.0,22.985
146.5,22.959
147.0,22.932
147.5,22.905
148.0,22.879
148.5,22.852
149.0,22.825
149.5,22.798
150.0,22.772
150.5,22.745
151.0,22.718
151.5,22.691
152.0,22.663
152.5,22.636
153.0,22.609
153.5,22.582
154.0,22.554
154.5,22.527
155.0,22.500
155.5,22.472
156.0,22.445
156.5,22.417
157.0,22.389
157.5,22.362
158.0,22.334
158.5,22.306
159.0,22.278
159.5,22.250
160.0,22.222
160.5,22.194
161.0,22.166
161.5,22.138
162.0,22.110
162.5,22.082
163.0,22.053
163.5,22.025
164.0,21.997
164.5,21.968
165.0,21.940
165.5,21.911
166.0,21.883
166.5,21.854
167.0,21.825
167.5,21.796
168.0,21.768
168.5,21.739
169.0,21.710
169.5,21.681
170.0,21.652
170.5,21.623
171.0,21.593
171.5,21.564
172.0,21.535
172.5,21.506
173.0,21.476
173.5,21.447
174.0,21.418
174.5,21.388
175.0,21.358
175.5,21.329
176.0,21.299
176.5,21.269
177.0,21.240
177.5,21.210
178.0,21.180
178.5,21.150
179.0,21.120
179.5,21.090
180.0,21.060
180.5,21.030
181.0,20.999
181.5,20.969
182.0,20.939
182.5,20.908
183.0,20.878
183.5,20.847
184.0,20.817
184.5,20.786
185.0,20.756
185.5,20.725
186.0,20.694
186.5,20.663
187.0,20.633
187.5,20.602
188.0,20.571
188.5,20.540
189.0,20.509
189.5,20.477
190.0,20.446
190.5,20.415
191.0,20.384
191.5,20.352
192.0,20.321
192.5,20.290
193.0,20.258
193.5,20.226
194.0,20.195
194.5,20.163
195.0,20.131
195.5,20.100
196.0,20.068
196.5,20.036
197.0,20.004
197.5,19.972
198.0,19.940
198.5,19.908
199.0,19.876
199.5,19.844
200.0,19.811
200.5,19.779
201.0,19.747
201.5,19.714
202.0,19.682
202.5,19.649
203.0,19.616
203.5,19.584
204.0,19.551
204.5,19.518
205.0,19.485
205.5,19.453
206.0,19.420
206.5,19.387
207.0,19.354
207.5,19.320
208.0,19.287
208.5,19.254
209.0,19.221
209.5,19.188
210.0,19.154
210.5,19.121
211.0,19.087
211.5,19.054
212.0,19.020
212.5,18.986
213.0,18.953
213.5,18.919
214.0,18.885
214.5,18.851
215.0,18.817
215.5,18.783
216.0,18.749
216.5,18.715
217.0,18.681
217.5,18.647
218.0,18.612
218.5,18.578
219.0,18.544
219.5,18.509
220.0,18.475
220.5,18.440
221.0,18.405
221.5,18.371
222.0,18.336
222.5,18.301
223.0,18.266
223.5,18.231
224.0,18.196
224.5,18.161
225.0,18.126
225.5,18.091
226.0,18.056
226.5,18.021
227.0,17.985
227.5,17.950
228.0,17.915
228.5,17.879
229.0,17.844
229.5,17.808
230.0,17.772
230.5,17.736
231.0,17.701
231.5,17.665
232.0,17.629
232.5,17.593
233.0,17.557
233.5,17.521
234.0,17.485
234.5,17.448
235.0,17.412
235.5,17.376
236.0,17.339
236.5,17.303
237.0,17.266
237.5,17.230
238.0,17.193
238.5,17.156
239.0,17.120
239.5,17.083
240.0,17.046
240.5,17.009
241.0,16.972
241.5,16.935
242.0,16.898
242.5,16.861
243.0,16.823
243.5,16.786
244.0,16.749
244.5,16.711
245.0,16.674
245.5,16.636
246.0,16.599
246.5,16.561
247.0,16.523
247.5,16.485
248.0,16.447
248.5,16.409
249.0,16.371
249.5,16.333
250.0,16.295
250.5,16.257
251.0,16.219
251.5,16.180
252.0,16.142
252.5,16.104
253.0,16.065
253.5,16.026
254.0,15.988
254.5,15.949
255.0,15.910
255.5,15.871
256.0,15.833
256.5,15.794
257.0,15.755
257.5,15.715
258.0,15.676
258.5,15.637
259.0,15.598
259.5,15.558
260.0,15.519
260.5,15.479
261.0,15.440
261.5,15.400
262.0,15.360
262.5,15.321
263.0,15.281
263.5,15.241
264.0,15.201
264.5,15.161
265.0,15.121
265.5,15.081
266.0,15.040
266.5,15.000
267.0,14.960
267.5,14.919
268.0,14.879
268.5,14.838
269.0,14.797
269.5,14.757
270.0,14.716
270.5,14.675
271.0,14.634
271.5,14.593
272.0,14.552
272.5,14.511
273.0,14.469
273.5,14.428
274.0,14.387
274.5,14.345
275.0,14.304
275.5,14.262
276.0,14.221
276.5,14.179
277.0,14.137
277.5,14.095
278.0,14.053
278.5,14.011
279.0,13.969
279.5,13.927
280.0,13.885
280.5,13.842
281.0,13.800
281.5,13.758
282.0,13.715
282.5,13.672
283.0,13.630
283.5,13.587
284.0,13.544
284.5,13.501
285.0,13.458
285.5,13.415
286.0,13.372
286.5,13.329
287.0,13.286
287.5,13.242
288.0,13.199
288.5,13.155
289.0,13.112
289.5,13.068
290.0,13.024
290.5,12.980
291.0,12.937
291.5,12.893
292.0,12.849
292.5,12.804
293.0,12.760
293.5,12.716
294.0,12.672
294.5,12.627
295.0,12.583
295.5,12.538
296.0,12.493
296.5,12.449
297.0,12.404
297.5,12.359
298.0,12.314
298.5,12.269
299.0,12.224
299.5,12.179
300.0,12.133
300.5,12.088
301.0,12.042
301.5,11.997
302.0,11.951
302.5,11.906
303.0,11.860
303.5,11.814
304.0,11.768
304.5,11.722
305.0,11.676
305.5,11.630
306.0,11.584
306.5,11.537
307.0,11.491
307.5,11.444
308.0,11.398
308.5,11.351
309.0,11.305
309.5,11.258
310.0,11.211
310.5,11.164
311.0,11.117
311.5,11.070
312.0,11.023
312.5,10.975
313.0,10.928
313.5,10.881
314.0,10.833
314.5,10.785
315.0,10.738
315.5,10.690
316.0,10.642
316.5,10.594
317.0,10.546
317.5,10.498
318.0,10.450
318.5,10.402
319.0,10.354
319.5,10.305
320.0,10.257
320.5,10.208
321.0,10.160
321.5,10.111
322.0,10.062
322.5,10.014
323.0,9.965
323.5,9.916
324.0,9.867
324.5,9.818
325.0,9.768
325.5,9.719
326.0,9.670
326.5,9.620
327.0,9.571
327.5,9.521
328.0,9.472
328.5,9.422
329.0,9.372
329.5,9.322
330.0,9.272
330.5,9.222
331.0,9.172
331.5,9.122
332.0,9.072
332.5,9.022
333.0,8.971
333.5,8.921
334.0,8.871
334.5,8.820
335.0,8.769
335.5,8.719
336.0,8.668
336.5,8.617
337.0,8.566
337.5,8.515
338.0,8.464
338.5,8.413
339.0,8.362
339.5,8.311
340.0,8.260
340.5,8.208
341.0,8.157
341.5,8.105
342.0,8.054
342.5,8.002
343.0,7.951
343.5,7.899
344.0,7.847
344.5,7.795
345.0,7.743
345.5,7.692
346.0,7.640
346.5,7.587
347.0,7.535
347.5,7.483
348.0,7.431
348.5,7.379
349.0,7.326
349.5,7.274
350.0,7.221
350.5,7.169
351.0,7.116
351.5,7.064
352.0,7.011
352.5,6.958
353.0,6.905
353.5,6.853
354.0,6.800
354.5,6.747
355.0,6.694
355.5,6.641
356.0,6.588
356.5,6.535
357.0,6.481
357.5,6.428
358.0,6.375
358.5,6.322
359.0,6.268
359.5,6.215
360.0,6.161
360.5,6.108
361.0,6.054
361.5,6.000
362.0,5.947
362.5,5.893
363.0,5.839
363.5,5.785
364.0,5.732
364.5,5.678
365.0,5.624
365.5,5.570
366.0,5.516
366.5,5.462
367.0,5.408
367.5,5.353
368.0,5.299
368.5,5.245
369.0,5.191
369.5,5.136
370.0,5.082
370.5,5.027
371.0,4.973
371.5,4.918
372.0,4.864
372.5,4.809
373.0,4.754
373.5,4.700
374.0,4.645
374.5,4.590
375.0,4.535
375.5,4.481
376.0,4.426
376.5,4.371
377.0,4.316
377.5,4.261
378.0,4.206
378.5,4.150
379.0,4.095
379.5,4.040
380.0,3.985
380.5,3.930
381.0,3.874
381.5,3.819
382.0,3.763
382.5,3.708
383.0,3.652
383.5,3.597
384.0,3.541
384.5,3.486
385.0,3.430
385.5,3.374
386.0,3.319
386.5,3.263
387.0,3.207
387.5,3.151
388.0,3.095
388.5,3.039
389.0,2.983
389.5,2.927
390.0,2.871
390.5,2.815
391.0,2.759
391.5,2.703
392.0,2.646
392.5,2.590
393.0,2.534
393.5,2.478
394.0,2.421
394.5,2.365
395.0,2.308
395.5,2.252
396.0,2.195
396.5,2.138
397.0,2.082
397.5,2.025
398.0,1.968
398.5,1.912
399.0,1.855
399.5,1.798
400.0,1.741
400.5,1.684
401.0,1.627
401.5,1.570
402.0,1.513
402.5,1.456
403.0,1.399
403.5,1.342
404.0,1.285
404.5,1.227
405.0,1.170
405.5,1.113
406.0,1.056
406.5,0.998
407.0,0.941
407.5,0.883
408.0,0.826
408.5,0.769
409.0,0.711
409.5,0.653
410.0,0.596
410.5,0.538
411.0,0.481
411.5,0.423
412.0,0.365
412.5,0.308
413.0,0.250
413.5,0.192
414.0,0.135
414.5,0.077
415.0,0.019
415.5,-0.038
416.0,-0.096
416.5,-0.154
417.0,-0.211
417.5,-0.269
418.0,-0.327
418.5,-0.384
419.0,-0.442
419.5,-0.499
420.0,-0.557
420.5,-0.614
421.0,-0.671
421.5,-0.728
422.0,-0.785
422.5,-0.842
423.0,-0.899
423.5,-0.955
424.0,-1.011
424.5,-1.067
425.0,-1.122
425.5,-1.177
426.0,-1.232
426.5,-1.285
427.0,-1.338
427.5,-1.389
428.0,-1.438
428.5,-1.485
429.0,-1.527
429.5,-1.558
430.0,-1.565
430.5,-1.565
431.0,-1.565
431.5,-1.565
432.0,-1.565
432.5,-1.565
433.0,-1.565
433.5,-1.565
434.0,-1.565
434.5,-1.565
435.0,-1.565
435.5,-1.565
436.0,-1.565
436.5,-1.565
437.0,-1.565
437.5,-1.565
438.0,-1.565
438.5,-1.565
439.0,-1.565
439.5,-1.565
440.0,-1.565
440.5,-1.565
441.0,-1.565
441.5,-1.565
442.0,-1.565
442.5,-1.565
443.0,-1.565
443.5,-1.565
444.0,-1.565
444.5,-1.565
445.0,-1.565
445.5,-1.565
446.0,-1.565
446.5,-1.565
447.0,-1.565
447.5,-1.565
448.0,-1.565
448.5,-1.565
449.0,-1.565
449.5,-1.565
450.0,-1.565
450.5,-1.565
451.0,-1.565
451.5,-1.565
452.0,-1.565
452.5,-1.565
453.0,-1.565
453.5,-1.565
454.0,-1.565
454.5,-1.565
455.0,-1.565
455.5,-1.565
456.0,-1.565
456.5,-1.565
457.0,-1.565
457.5,-1.565
458.0,-1.565
458.5,-1.565
459.0,-1.565
459.5,-1.565
460.0,-1.565
460.5,-1.565
461.0,-1.565
461.5,-1.565
462.0,-1.565
462.5,-1.565
463.0,-1.565
463.5,-1.565
464.0,-1.565
464.5,-1.565
465.0,-1.565
465.5,-1.565
466.0,-1.565
466.5,-1.565
467.0,-1.565
467.5,-1.565
468.0,-1.565
468.5,-1.565
469.0,-1.565
469.5,-1.565
470.0,-1.565
470.5,-1.565
471.0,-1.565
471.5,-1.565
472.0,-1.565
472.5,-1.565
473.0,-1.565
473.5,-1.565
474.0,-1.565
474.5,-1.565
475.0,-1.565
475.5,-1.565
476.0,-1.565
476.5,-1.565
477.0,-1.565
477.5,-1.565
478.0,-1.565
478.5,-1.565
479.0,-1.565
479.5,-1.565
480.0,-1.565
480.5,-1.565
481.0,-1.565
481.5,-1.565
482.0,-1.565
482.5,-1.565
483.0,-1.565
483.5,-1.565
484.0,-1.565
484.5,-1.565
485.0,-1.565
485.5,-1.565
486.0,-1.565
486.5,-1.565
487.0,-1.565
487.5,-1.565
488.0,-1.565
488.5,-1.565
489.0,-1.565
489.5,-1.565
490.0,-1.565
490.5,-1.565
491.0,-1.565
491.5,-1.565
492.0,-1.565
492.5,-1.565
493.0,-1.565
493.5,-1.565
494.0,-1.565
494.5,-1.565
495.0,-1.565
495.5,-1.565
496.0,-1.565
496.5,-1.565
497.0,-1.565
497.5,-1.565
498.0,-1.565
498.5,-1.565
499.0,-1.565
499.5,-1.565
500.0,-1.565