File: PMMA/Calibration_Results/NIST_FSRI/All_Props/Aalto[NIST_FSRI]_Gasification_q50_R3_Mass.csv
s,kg/m2,,C,C,C,C,m,kg/m2,kg/m2,kg/m2,kg/m2/s
Time,"SD","MF","TW1","TSB1","TAL1","TB1","DX1","SD1","SD_11","SD_12","BR1"
 0.0000000E+000, 6.96099, 0.999927, 20.9, 20.9, 20.9, 20.9, 0.041278, 31.8153, 0.294768, 7.07443, 0.0000000E+000
 1.5, 6.96099, 0.999927, 72.2328, 20.9, 20.9, 20.9, 0.041278, 31.8153, 0.294768, 7.07443, 6.75904e-09
 3.01, 6.96099, 0.999927, 113.057, 20.9, 20.9, 20.9, 0.041278, 31.8153, 0.294768, 7.07443, 1.95213e-07
 4.51, 6.96099, 0.999926, 144.258, 20.9, 20.9, 20.9, 0.041278, 31.8153, 0.294767, 7.07443, 1.76448e-06
 6.01, 6.96098, 0.999925, 170.154, 20.9, 20.9, 20.9, 0.041278, 31.8153, 0.29476, 7.07443, 8.7835e-06
 7.51, 6.96095, 0.999921, 192.445, 20.9, 20.9, 20.9, 0.041278, 31.8153, 0.294733, 7.07443, 3.04929e-05
 9.01, 6.96085, 0.999907, 212.037, 20.9001, 20.9, 20.9, 0.0412779, 31.8152, 0.294652, 7.07443, 8.30262e-05
 10.51, 6.96063, 0.999875, 229.464, 20.9005, 20.9, 20.9, 0.0412777, 31.815, 0.294456, 7.07443, 0.000189119
 12.01, 6.96017, 0.999809, 245.057, 20.9016, 20.9, 20.9, 0.0412774, 31.8146, 0.294044, 7.07443, 0.000373894
 13.51, 6.95934, 0.99969, 259.035, 20.9048, 20.9, 20.9, 0.0412767, 31.8138, 0.293285, 7.07443, 0.000655159
 15.01, 6.95799, 0.999496, 271.562, 20.9109, 20.9, 20.9, 0.0412756, 31.8126, 0.292036, 7.07442, 0.00102977
 16.51, 6.95602, 0.999212, 282.804, 20.9233, 20.9, 20.9, 0.041274, 31.8107, 0.290188, 7.0744, 0.00146346
 18, 6.95339, 0.998835, 292.925, 20.9439, 20.9, 20.9, 0.0412718, 31.8082, 0.287717, 7.07435, 0.00189348
 19.5, 6.95017, 0.998373, 302.186, 20.9834, 20.9, 20.9, 0.0412691, 31.8051, 0.284697, 7.07425, 0.00225479
 21, 6.94652, 0.997849, 310.833, 21.0342, 20.9, 20.9, 0.041266, 31.8015, 0.281288, 7.07407, 0.0025062
 22.5, 6.94261, 0.997286, 318.992, 21.122, 20.9, 20.9, 0.0412626, 31.7976, 0.277724, 7.07376, 0.00265153
 24, 6.93853, 0.996701, 326.72, 21.2123, 20.9, 20.9, 0.0412591, 31.7936, 0.274208, 7.07322, 0.00274627
 25.5, 6.93429, 0.996092, 333.968, 21.3462, 20.9, 20.9, 0.0412554, 31.7893, 0.270867, 7.07236, 0.00287262
 27, 6.92977, 0.995442, 340.625, 21.5268, 20.9, 20.9, 0.0412515, 31.7849, 0.267742, 7.07102, 0.00309996
 28.5, 6.92477, 0.994724, 346.589, 21.7624, 20.9, 20.9, 0.0412473, 31.78, 0.264818, 7.06903, 0.00345924
 30, 6.9191, 0.99391, 351.809, 21.9941, 20.9, 20.9, 0.0412424, 31.7744, 0.262061, 7.06625, 0.00394806
 31.5, 6.91259, 0.992974, 356.286, 22.2996, 20.9, 20.9, 0.0412369, 31.7681, 0.259437, 7.06251, 0.00454431
 33, 6.9051, 0.991899, 360.056, 22.7003, 20.9, 20.9, 0.0412305, 31.7607, 0.256913, 7.05771, 0.00521113
 34.5, 6.89659, 0.990675, 363.189, 23.1195, 20.9, 20.9, 0.0412233, 31.7524, 0.25447, 7.05181, 0.00590497
 36, 6.88703, 0.989303, 365.776, 23.6306, 20.9, 20.9, 0.0412151, 31.743, 0.2521, 7.0448, 0.00659002
 37.5, 6.87648, 0.987788, 367.914, 24.2122, 20.9, 20.9, 0.0412061, 31.7326, 0.249802, 7.03671, 0.00724604
 39, 6.86498, 0.986136, 369.691, 24.8179, 20.9, 20.9, 0.0411962, 31.7213, 0.247574, 7.0276, 0.00786514
 40.5, 6.8526, 0.984356, 371.178, 25.3944, 20.9, 20.9, 0.0411856, 31.709, 0.24541, 7.01752, 0.00844501
 42, 6.83938, 0.982458, 372.434, 25.9909, 20.9, 20.9, 0.0411742, 31.696, 0.243303, 7.00654, 0.00898493
 43.51, 6.82539, 0.980449, 373.508, 27.0148, 20.9, 20.9, 0.0411621, 31.6821, 0.241236, 6.9947, 0.00948649
 45.01, 6.81069, 0.978337, 374.429, 27.9104, 20.9, 20.9, 0.0411494, 31.6674, 0.239213, 6.98209, 0.00994884
 46.51, 6.79534, 0.976132, 375.226, 28.9077, 20.9, 20.9, 0.0411361, 31.6522, 0.237236, 6.96881, 0.0103734
 48.01, 6.77939, 0.97384, 375.928, 29.9212, 20.9, 20.9, 0.0411223, 31.6363, 0.235297, 6.95489, 0.0107662
 49.51, 6.76287, 0.971468, 376.547, 30.7998, 20.9, 20.9, 0.0411081, 31.6199, 0.233393, 6.94036, 0.0111293
 51.01, 6.74584, 0.969021, 377.099, 31.7064, 20.9, 20.9, 0.0410933, 31.6029, 0.231523, 6.92528, 0.011467
 52.51, 6.72832, 0.966504, 377.599, 33.0239, 20.9, 20.9, 0.0410781, 31.5855, 0.229683, 6.90968, 0.0117836
 54.01, 6.71035, 0.963922, 378.048, 34.2583, 20.9, 20.9, 0.0410626, 31.5676, 0.227873, 6.89359, 0.012079
 55.51, 6.69195, 0.96128, 378.458, 35.4592, 20.9, 20.9, 0.0410466, 31.5492, 0.226088, 6.87704, 0.0123564
 57.01, 6.67315, 0.958579, 378.837, 37.0851, 20.9, 20.9, 0.0410303, 31.5305, 0.224326, 6.86006, 0.0126196
 58.51, 6.65397, 0.955824, 379.18, 38.6967, 20.9, 20.9, 0.0410137, 31.5114, 0.222586, 6.84269, 0.0128652
 60.01, 6.63444, 0.953019, 379.503, 39.9511, 20.9, 20.9, 0.0409968, 31.4919, 0.220865, 6.82493, 0.0130989
 61.51, 6.61457, 0.950164, 379.802, 41.7987, 20.9, 20.9, 0.0409795, 31.4721, 0.219162, 6.80681, 0.0133213
 63.01, 6.59438, 0.947264, 380.077, 42.8911, 20.9, 20.9, 0.040962, 31.452, 0.217476, 6.78836, 0.0135289
 64.51, 6.57388, 0.94432, 380.334, 44.2275, 20.9, 20.9, 0.0409443, 31.4315, 0.215806, 6.76958, 0.0137267
 66.01, 6.5531, 0.941335, 380.585, 46.6358, 20.9, 20.9, 0.0409262, 31.4108, 0.214151, 6.7505, 0.013919
 67.51, 6.53204, 0.938309, 380.816, 48.1928, 20.9, 20.9, 0.0409079, 31.3898, 0.21251, 6.73113, 0.0141005
 69.01, 6.51072, 0.935246, 381.033, 50.0593, 20.9, 20.9, 0.0408894, 31.3685, 0.210882, 6.71147, 0.0142724
 70.51, 6.48914, 0.932147, 381.236, 51.0689, 20.9, 20.9, 0.0408707, 31.3469, 0.209266, 6.69155, 0.014436
 72.01, 6.46733, 0.929014, 381.432, 52.9916, 20.9, 20.9, 0.0408518, 31.3252, 0.207661, 6.67138, 0.0145944
 73.5, 6.44528, 0.925847, 381.627, 55.4264, 20.9, 20.9, 0.0408328, 31.3033, 0.206077, 6.6511, 0.0147504
 75, 6.42301, 0.922647, 381.807, 57.0268, 20.9, 20.9, 0.0408134, 31.2811, 0.204491, 6.63045, 0.0148974
 76.5, 6.40052, 0.919416, 381.979, 58.7249, 20.9, 20.9, 0.0407939, 31.2586, 0.202914, 6.60957, 0.0150397
 78, 6.37782, 0.916156, 382.143, 60.4322, 20.9, 20.9, 0.0407742, 31.2359, 0.201345, 6.58848, 0.0151753
 79.5, 6.35492, 0.912867, 382.3, 62.2467, 20.9, 20.9, 0.0407543, 31.2131, 0.199784, 6.56718, 0.0153058
 81, 6.33183, 0.90955, 382.453, 64.6426, 20.9, 20.9, 0.0407343, 31.19, 0.198228, 6.54568, 0.015434
 82.5, 6.30856, 0.906206, 382.609, 64.6478, 20.9, 20.9, 0.0407141, 31.1668, 0.196679, 6.52398, 0.0155619
 84, 6.28509, 0.902835, 382.756, 67.466, 20.9, 20.9, 0.0406937, 31.1433, 0.195135, 6.50209, 0.0156845
 85.5, 6.26144, 0.899439, 382.894, 70.2488, 20.9, 20.9, 0.0406731, 31.1197, 0.193596, 6.48001, 0.0158012
 87, 6.23762, 0.896017, 383.03, 72.1388, 20.9, 20.9, 0.0406524, 31.0959, 0.192061, 6.45775, 0.0159165
 88.5, 6.21364, 0.892572, 383.161, 73.4984, 20.9, 20.9, 0.0406316, 31.072, 0.190529, 6.43533, 0.0160273
 90, 6.18949, 0.889103, 383.288, 75.1738, 20.9, 20.9, 0.0406106, 31.0479, 0.189001, 6.41273, 0.0161346
 91.5, 6.16518, 0.885611, 383.412, 77.9679, 20.9, 20.9, 0.0405895, 31.0236, 0.187475, 6.38998, 0.0162398
 93, 6.14071, 0.882096, 383.535, 80.9257, 20.9, 20.9, 0.0405683, 30.9991, 0.185951, 6.36706, 0.016345
 94.5, 6.11609, 0.878559, 383.659, 82.5178, 20.9, 20.9, 0.0405469, 30.9745, 0.184429, 6.34399, 0.0164485
 96, 6.09131, 0.875, 383.784, 84.702, 20.9, 20.9, 0.0405254, 30.9498, 0.182908, 6.32075, 0.0165537
 97.5, 6.06638, 0.871419, 383.899, 86.1643, 20.9, 20.9, 0.0405037, 30.9249, 0.181387, 6.29737, 0.016652
 99, 6.0413, 0.867816, 384.013, 88.3552, 20.9, 20.9, 0.0404819, 30.8998, 0.179867, 6.27384, 0.0167501
 100.5, 6.01608, 0.864193, 384.126, 90.8101, 20.9, 20.9, 0.04046, 30.8746, 0.178346, 6.25016, 0.0168462
 102, 5.99072, 0.86055, 384.234, 92.5121, 20.9, 20.9, 0.040438, 30.8493, 0.176824, 6.22634, 0.0169397
 103.5, 5.96521, 0.856886, 384.341, 94.3373, 20.9, 20.9, 0.0404158, 30.8238, 0.175301, 6.20238, 0.0170319
 105, 5.93957, 0.853203, 384.447, 97.0833, 20.9001, 20.9, 0.0403935, 30.7982, 0.173775, 6.17829, 0.0171225
 106.5, 5.9138, 0.849501, 384.553, 98.9149, 20.9001, 20.9, 0.0403711, 30.7724, 0.172248, 6.15407, 0.0172148
 108, 5.88788, 0.845778, 384.657, 101.285, 20.9001, 20.9, 0.0403486, 30.7465, 0.170718, 6.1297, 0.0173052
 109.5, 5.86184, 0.842037, 384.759, 102.696, 20.9001, 20.9, 0.040326, 30.7205, 0.169185, 6.10521, 0.0173936
 111, 5.83565, 0.838275, 384.872, 105.914, 20.9001, 20.9, 0.0403032, 30.6944, 0.167648, 6.08059, 0.0174885
 112.5, 5.80933, 0.834494, 384.974, 107.884, 20.9001, 20.9, 0.0402804, 30.6681, 0.166107, 6.05583, 0.0175774
 114, 5.78287, 0.830693, 385.074, 109.561, 20.9002, 20.9, 0.0402574, 30.6416, 0.164561, 6.03094, 0.0176661
 115.5, 5.75628, 0.826874, 385.174, 111.52, 20.9002, 20.9, 0.0402343, 30.6151, 0.163011, 6.00592, 0.0177542
 117, 5.72957, 0.823036, 385.272, 113.032, 20.9002, 20.9, 0.0402111, 30.5884, 0.161455, 5.98078, 0.0178402
 118.5, 5.70272, 0.81918, 385.368, 114.532, 20.9002, 20.9, 0.0401878, 30.5615, 0.159893, 5.95552, 0.0179252
 120, 5.67575, 0.815305, 385.464, 116.771, 20.9003, 20.9, 0.0401643, 30.5346, 0.158325, 5.93013, 0.0180103
 121.5, 5.64864, 0.811412, 385.559, 121.304, 20.9003, 20.9, 0.0401408, 30.5075, 0.156751, 5.90463, 0.0180956
 123, 5.62141, 0.8075, 385.657, 121.876, 20.9004, 20.9, 0.0401171, 30.4803, 0.155169, 5.879, 0.0181827
 124.5, 5.59405, 0.80357, 385.751, 124.127, 20.9004, 20.9001, 0.0400933, 30.453, 0.15358, 5.85325, 0.018268
 126, 5.56657, 0.799622, 385.845, 125.75, 20.9005, 20.9001, 0.0400694, 30.4255, 0.151983, 5.82738, 0.0183526
 127.5, 5.53895, 0.795655, 385.938, 128.158, 20.9006, 20.9001, 0.0400455, 30.3979, 0.150377, 5.80139, 0.0184366
 129, 5.5112, 0.791669, 386.043, 130.246, 20.9007, 20.9001, 0.0400213, 30.3702, 0.148763, 5.77528, 0.0185281
 130.5, 5.48332, 0.787664, 386.139, 132.658, 20.9007, 20.9001, 0.0399971, 30.3423, 0.147139, 5.74905, 0.018617
 132, 5.45531, 0.78364, 386.233, 136.219, 20.9008, 20.9001, 0.0399728, 30.3143, 0.145505, 5.72269, 0.0187033
 133.5, 5.42717, 0.779598, 386.325, 136.665, 20.9009, 20.9001, 0.0399483, 30.2862, 0.143862, 5.69622, 0.018788
 135, 5.3989, 0.775537, 386.417, 137.247, 20.9011, 20.9001, 0.0399238, 30.258, 0.142207, 5.66962, 0.0188733
 136.5, 5.3705, 0.771458, 386.507, 142.667, 20.9012, 20.9002, 0.0398991, 30.2296, 0.140542, 5.64291, 0.018958
 138, 5.34198, 0.767361, 386.598, 142.217, 20.9013, 20.9002, 0.0398743, 30.2011, 0.138864, 5.61609, 0.0190424
 139.5, 5.31333, 0.763245, 386.691, 146.154, 20.9015, 20.9002, 0.0398494, 30.1724, 0.137175, 5.58915, 0.0191314
 141, 5.28454, 0.75911, 386.783, 145.823, 20.9016, 20.9002, 0.0398244, 30.1437, 0.135474, 5.56209, 0.0192182
 142.5, 5.25563, 0.754957, 386.873, 152.025, 20.9018, 20.9003, 0.0397993, 30.1148, 0.133759, 5.53491, 0.0193037
 144, 5.22659, 0.750785, 386.962, 154.101, 20.902, 20.9003, 0.039774, 30.0858, 0.132031, 5.50762, 0.0193899
 145.5, 5.19742, 0.746594, 387.052, 156.171, 20.9022, 20.9003, 0.0397487, 30.0566, 0.13029, 5.48021, 0.0194764
 147, 5.16811, 0.742385, 387.142, 158.236, 20.9025, 20.9004, 0.0397232, 30.0273, 0.128534, 5.45268, 0.0195629
 148.5, 5.13867, 0.738156, 387.246, 160.295, 20.9027, 20.9004, 0.0396976, 29.9979, 0.126763, 5.42503, 0.0196608
 150, 5.10909, 0.733906, 387.338, 162.349, 20.903, 20.9005, 0.0396719, 29.9684, 0.124977, 5.39726, 0.0197515
 151.5, 5.07937, 0.729637, 387.428, 164.396, 20.9033, 20.9005, 0.0396461, 29.9387, 0.123175, 5.36937, 0.01984
 153, 5.04952, 0.72535, 387.517, 166.437, 20.9036, 20.9006, 0.0396202, 29.9088, 0.121358, 5.34136, 0.0199276
 154.5, 5.01954, 0.721043, 387.606, 168.471, 20.904, 20.9007, 0.0395941, 29.8789, 0.119524, 5.31323, 0.0200166
 156, 4.98943, 0.716717, 387.695, 170.499, 20.9043, 20.9007, 0.039568, 29.8488, 0.117673, 5.28499, 0.0201058
 157.5, 4.95917, 0.712371, 387.787, 172.52, 20.9047, 20.9008, 0.0395417, 29.8186, 0.115804, 5.25663, 0.0201987
 159, 4.92878, 0.708006, 387.876, 174.533, 20.9051, 20.9009, 0.0395153, 29.7882, 0.113918, 5.22815, 0.0202888
 160.51, 4.89826, 0.703621, 387.966, 176.553, 20.9056, 20.901, 0.0394886, 29.7575, 0.112002, 5.19936, 0.0203805
 162.01, 4.8676, 0.699217, 388.054, 178.551, 20.9061, 20.9011, 0.0394619, 29.7268, 0.110079, 5.17064, 0.0204709
 163.51, 4.8368, 0.694793, 388.142, 180.542, 20.9066, 20.9012, 0.0394352, 29.6961, 0.108138, 5.14181, 0.0205609
 165.01, 4.80587, 0.690349, 388.23, 182.525, 20.9071, 20.9013, 0.0394083, 29.6652, 0.106178, 5.11286, 0.0206527
 166.51, 4.77479, 0.685886, 388.323, 184.5, 20.9077, 20.9015, 0.0393813, 29.6341, 0.104199, 5.08378, 0.0207485
 168.01, 4.74357, 0.681401, 388.421, 186.466, 20.9083, 20.9016, 0.0393542, 29.6029, 0.1022, 5.05459, 0.0208461
 169.51, 4.71221, 0.676896, 388.513, 183.846, 20.909, 20.9017, 0.0393269, 29.5716, 0.100182, 5.02526, 0.0209414
 171.01, 4.6807, 0.67237, 388.602, 186.544, 20.9096, 20.9019, 0.0392995, 29.5401, 0.098145, 4.99582, 0.0210353
 172.51, 4.64906, 0.667824, 388.69, 189.623, 20.9104, 20.9021, 0.039272, 29.5085, 0.0960881, 4.96625, 0.0211281
 174.01, 4.61727, 0.663258, 388.778, 191.93, 20.9111, 20.9022, 0.0392444, 29.4767, 0.0940118, 4.93656, 0.02122
 175.51, 4.58534, 0.658672, 388.87, 192.295, 20.9119, 20.9024, 0.0392167, 29.4448, 0.0919162, 4.90676, 0.0213175
 177.01, 4.55327, 0.654065, 388.96, 195.749, 20.9128, 20.9027, 0.0391888, 29.4127, 0.0898015, 4.87682, 0.021412
 178.51, 4.52106, 0.649438, 389.048, 196.477, 20.9137, 20.9029, 0.0391608, 29.3806, 0.087668, 4.84677, 0.0215044
 180.01, 4.48871, 0.644791, 389.135, 199.533, 20.9147, 20.9031, 0.0391327, 29.3482, 0.0855163, 4.81659, 0.0215968
 181.51, 4.45623, 0.640124, 389.224, 201.019, 20.9157, 20.9034, 0.0391045, 29.3158, 0.0833467, 4.7863, 0.0216902
 183.01, 4.4236, 0.635437, 389.312, 203.279, 20.9167, 20.9036, 0.0390761, 29.2832, 0.0811601, 4.75588, 0.0217826
 184.51, 4.39083, 0.63073, 389.403, 203.169, 20.9178, 20.9039, 0.0390476, 29.2504, 0.0789571, 4.72533, 0.0218784
 186.01, 4.35792, 0.626003, 389.492, 206.2, 20.919, 20.9042, 0.039019, 29.2175, 0.0767386, 4.69466, 0.0219709
 187.51, 4.32487, 0.621255, 389.581, 208.04, 20.9202, 20.9045, 0.0389903, 29.1845, 0.0745057, 4.66387, 0.022064
 189.01, 4.29168, 0.616487, 389.679, 209.871, 20.9214, 20.9049, 0.0389615, 29.1513, 0.0722596, 4.63295, 0.0221603
 190.51, 4.25834, 0.611699, 389.769, 210.103, 20.9228, 20.9052, 0.0389325, 29.118, 0.0700017, 4.60189, 0.0222526
 192.01, 4.22487, 0.606891, 389.857, 211.914, 20.9241, 20.9056, 0.0389034, 29.0846, 0.0677333, 4.57072, 0.0223432
 193.51, 4.19127, 0.602064, 389.949, 215.716, 20.9256, 20.906, 0.0388742, 29.051, 0.0654562, 4.53941, 0.0224358
 195.01, 4.15752, 0.597217, 390.038, 219.118, 20.9271, 20.9064, 0.0388449, 29.0173, 0.0631723, 4.50797, 0.0225251
 196.51, 4.12365, 0.592351, 390.126, 218.908, 20.9287, 20.9069, 0.0388155, 28.9834, 0.0608834, 4.4764, 0.0226112
 198.01, 4.08965, 0.587466, 390.214, 221.095, 20.9303, 20.9073, 0.0387859, 28.9494, 0.0585918, 4.44471, 0.0226979
 199.51, 4.05552, 0.582563, 390.303, 221.666, 20.932, 20.9078, 0.0387563, 28.9153, 0.0562999, 4.41289, 0.0227823
 201.01, 4.02126, 0.577643, 390.39, 224.65, 20.9338, 20.9084, 0.0387265, 28.8811, 0.0540102, 4.38095, 0.022864
 202.51, 3.98688, 0.572704, 390.479, 225.611, 20.9357, 20.9089, 0.0386966, 28.8467, 0.0517253, 4.34887, 0.022948
 204.01, 3.95237, 0.567747, 390.571, 228.184, 20.9376, 20.9095, 0.0386666, 28.8122, 0.0494482, 4.31666, 0.0230319
 205.51, 3.91775, 0.562774, 390.659, 230.352, 20.9396, 20.9101, 0.0386365, 28.7776, 0.0471819, 4.28432, 0.0231102
 207.01, 3.88301, 0.557783, 390.746, 231.299, 20.9417, 20.9107, 0.0386063, 28.7429, 0.0449296, 4.25185, 0.0231864
 208.51, 3.84815, 0.552776, 390.834, 234.686, 20.9438, 20.9114, 0.038576, 28.7081, 0.0426948, 4.21925, 0.0232618
 210.01, 3.81318, 0.547753, 390.93, 235.219, 20.9461, 20.9121, 0.0385456, 28.6731, 0.0404808, 4.18651, 0.0233396
 211.51, 3.7781, 0.542713, 391.023, 236.156, 20.9484, 20.9128, 0.0385152, 28.638, 0.0382915, 4.15364, 0.0234153
 213.01, 3.7429, 0.537657, 391.115, 239.143, 20.9508, 20.9136, 0.0384846, 28.6029, 0.0361305, 4.12062, 0.0234882
 214.51, 3.7076, 0.532586, 391.204, 240.902, 20.9533, 20.9144, 0.0384539, 28.5676, 0.0340018, 4.08746, 0.0235586
 216.01, 3.67219, 0.5275, 391.292, 240.603, 20.9558, 20.9152, 0.0384231, 28.5322, 0.0319093, 4.05416, 0.0236243
 217.51, 3.63669, 0.522401, 391.38, 243.192, 20.9585, 20.9161, 0.0383923, 28.4967, 0.0298572, 4.02073, 0.0236871
 219.01, 3.6011, 0.517288, 391.467, 246.204, 20.9612, 20.917, 0.0383613, 28.4611, 0.0278496, 3.98716, 0.0237485
 220.51, 3.56542, 0.512162, 391.556, 246.734, 20.9641, 20.9179, 0.0383303, 28.4255, 0.0258906, 3.95345, 0.0238102
 222.01, 3.52964, 0.507023, 391.649, 248.932, 20.967, 20.9189, 0.0382992, 28.3897, 0.0239844, 3.91959, 0.0238731
 223.51, 3.49377, 0.50187, 391.738, 251.14, 20.9701, 20.9199, 0.038268, 28.3538, 0.0221351, 3.88559, 0.0239311
 225.01, 3.45782, 0.496706, 391.826, 252.52, 20.9732, 20.921, 0.0382368, 28.3179, 0.0203468, 3.85144, 0.023986
 226.51, 3.42178, 0.491529, 391.916, 254.327, 20.9764, 20.9221, 0.0382054, 28.2819, 0.0186234, 3.81714, 0.0240429
 228.01, 3.38566, 0.486341, 392.004, 254.877, 20.9797, 20.9233, 0.0381741, 28.2458, 0.0169688, 3.78269, 0.0240958
 229.51, 3.34947, 0.481142, 392.092, 258.396, 20.9831, 20.9245, 0.0381426, 28.2096, 0.0153865, 3.74809, 0.0241473
 231.01, 3.31319, 0.475931, 392.187, 260.235, 20.9867, 20.9257, 0.0381111, 28.1733, 0.01388, 3.71333, 0.0242052
 232.51, 3.27682, 0.470706, 392.288, 261.658, 20.9903, 20.927, 0.0380794, 28.137, 0.0124522, 3.6784, 0.0242672
 234.01, 3.24037, 0.465469, 392.379, 263.089, 20.994, 20.9284, 0.0380478, 28.1005, 0.0111058, 3.64331, 0.0243213
 235.51, 3.20383, 0.460221, 392.468, 266.248, 20.9979, 20.9297, 0.038016, 28.064, 0.00984311, 3.60805, 0.0243748
 237.01, 3.16721, 0.454961, 392.559, 267.267, 21.0018, 20.9312, 0.0379842, 28.0274, 0.00866578, 3.57262, 0.0244311
 238.51, 3.13051, 0.449689, 392.65, 267.856, 21.0059, 20.9327, 0.0379523, 27.9907, 0.00757501, 3.53702, 0.0244887
 240.01, 3.09372, 0.444404, 392.741, 271.051, 21.0101, 20.9342, 0.0379203, 27.9539, 0.00657138, 3.50125, 0.0245482
 241.51, 3.05683, 0.439105, 392.835, 274.694, 21.0143, 20.9358, 0.0378882, 27.9171, 0.0056548, 3.46529, 0.0246131
 243.01, 3.01984, 0.433791, 392.929, 274.425, 21.0187, 20.9375, 0.0378561, 27.8801, 0.00482435, 3.42915, 0.0246827
 244.51, 2.98275, 0.428463, 393.02, 274.15, 21.0233, 20.9392, 0.0378238, 27.843, 0.00407839, 3.39282, 0.0247519
 246.01, 2.94555, 0.423119, 393.111, 278.679, 21.0279, 20.941, 0.0377915, 27.8058, 0.00341445, 3.3563, 0.0248254
 247.51, 2.90823, 0.417759, 393.203, 278.837, 21.0326, 20.9428, 0.0377591, 27.7685, 0.00282932, 3.31959, 0.0249042
 249.01, 2.87079, 0.41238, 393.297, 282.49, 21.0375, 20.9447, 0.0377265, 27.7311, 0.00231908, 3.28268, 0.0249905
 250.51, 2.83321, 0.406982, 393.394, 283.946, 21.0425, 20.9467, 0.0376939, 27.6936, 0.00187912, 3.24556, 0.0250849
 252.01, 2.79548, 0.401563, 393.492, 287.142, 21.0476, 20.9487, 0.0376611, 27.6559, 0.0015043, 3.20823, 0.0251837
 253.51, 2.7576, 0.396122, 393.591, 288.13, 21.0529, 20.9508, 0.0376282, 27.618, 0.00118901, 3.17069, 0.0252899
 255.01, 2.71956, 0.390657, 393.687, 290.413, 21.0582, 20.9529, 0.0375951, 27.58, 0.000927359, 3.13294, 0.0254002
 256.51, 2.68134, 0.385168, 393.78, 291.36, 21.0637, 20.9552, 0.0375619, 27.5418, 0.000713282, 3.09497, 0.0255116
 258.01, 2.64296, 0.379654, 393.872, 294.47, 21.0694, 20.9574, 0.0375285, 27.5034, 0.000540717, 3.05678, 0.0256276
 259.51, 2.6044, 0.374114, 393.97, 294.933, 21.0751, 20.9598, 0.037495, 27.4649, 0.000403762, 3.01838, 0.0257547
 261.01, 2.56564, 0.368547, 394.065, 298.854, 21.081, 20.9622, 0.0374614, 27.4262, 0.000296814, 2.97976, 0.0258815
 262.51, 2.52669, 0.362952, 394.158, 297.959, 21.087, 20.9647, 0.0374275, 27.3873, 0.000214691, 2.94093, 0.0260091
 264.01, 2.48755, 0.357329, 394.25, 299.644, 21.0932, 20.9673, 0.0373935, 27.3482, 0.000152717, 2.90188, 0.0261368
 265.51, 2.44821, 0.351678, 394.344, 302.588, 21.0994, 20.9699, 0.0373593, 27.3088, 0.00010678, 2.86262, 0.0262686
 267.01, 2.40868, 0.346, 394.435, 307.209, 21.1059, 20.9726, 0.037325, 27.2693, 7.33518e-05, 2.82315, 0.0263984
 268.51, 2.36895, 0.340293, 394.526, 308.777, 21.1124, 20.9754, 0.0372905, 27.2296, 4.94823e-05, 2.78348, 0.0265271
 270.01, 2.32903, 0.334558, 394.621, 310.31, 21.1191, 20.9783, 0.0372558, 27.1898, 3.27654e-05, 2.74361, 0.0266564
 271.51, 2.28891, 0.328796, 394.714, 311.809, 21.126, 20.9812, 0.0372209, 27.1497, 2.12873e-05, 2.70353, 0.0267863
 273.01, 2.24861, 0.323007, 394.809, 313.277, 21.1329, 20.9843, 0.0371859, 27.1094, 1.35638e-05, 2.66327, 0.0269093
 274.51, 2.20813, 0.317191, 394.901, 314.712, 21.1401, 20.9874, 0.0371507, 27.0689, 8.47257e-06, 2.62282, 0.0270307
 276.01, 2.16746, 0.31135, 394.99, 316.12, 21.1473, 20.9906, 0.0371154, 27.0283, 5.18601e-06, 2.58218, 0.0271455
 277.51, 2.12663, 0.305485, 395.079, 315.003, 21.1547, 20.9938, 0.0370799, 26.9875, 3.1092e-06, 2.54138, 0.0272578
 279.01, 2.08564, 0.299596, 395.169, 315.955, 21.1623, 20.9972, 0.0370443, 26.9465, 1.82501e-06, 2.50042, 0.0273663
 280.51, 2.04448, 0.293684, 395.258, 317.713, 21.17, 21.0006, 0.0370085, 26.9054, 1.0483e-06, 2.45929, 0.0274701
 282.01, 2.00318, 0.287751, 395.344, 318.625, 21.1778, 21.0042, 0.0369726, 26.8641, 5.88969e-07, 2.41801, 0.0275677
 283.51, 1.96173, 0.281797, 395.432, 319.93, 21.1858, 21.0078, 0.0369366, 26.8227, 3.23497e-07, 2.37658, 0.0276634
 285.01, 1.92015, 0.275824, 395.517, 321.622, 21.194, 21.0115, 0.0369005, 26.7811, 1.73613e-07, 2.33502, 0.0277532
 286.51, 1.87843, 0.269832, 395.601, 321.677, 21.2023, 21.0153, 0.0368642, 26.7394, 9.09877e-08, 2.29333, 0.0278354
 288.01, 1.8366, 0.263822, 395.687, 322.535, 21.2107, 21.0192, 0.0368278, 26.6976, 4.65382e-08, 2.25151, 0.0279188
 289.51, 1.79464, 0.257795, 395.775, 323.786, 21.2193, 21.0232, 0.0367914, 26.6557, 2.32155e-08, 2.20957, 0.0279984
 291.01, 1.75256, 0.251751, 395.862, 325.825, 21.2281, 21.0272, 0.0367548, 26.6136, 1.12872e-08, 2.16751, 0.0280753
 292.51, 1.71038, 0.245691, 395.948, 327.054, 21.237, 21.0314, 0.0367181, 26.5715, 5.34442e-09, 2.12535, 0.0281462
 294.01, 1.66809, 0.239617, 396.032, 327.488, 21.2461, 21.0357, 0.0366814, 26.5292, 2.46243e-09, 2.08308, 0.0282125
 295.51, 1.62571, 0.233528, 396.119, 330.29, 21.2553, 21.0401, 0.0366445, 26.4868, 1.10304e-09, 2.0407, 0.0282793
 297.01, 1.58322, 0.227426, 396.211, 330.722, 21.2647, 21.0445, 0.0366076, 26.4444, 4.79911e-10, 1.99824, 0.0283446
 298.51, 1.54065, 0.22131, 396.298, 332.728, 21.2742, 21.0491, 0.0365706, 26.4018, 2.02592e-10, 1.95567, 0.0284035
 300.01, 1.49799, 0.215181, 396.384, 332.001, 21.284, 21.0537, 0.0365335, 26.3591, 8.28868e-11, 1.91303, 0.0284599
 301.51, 1.45523, 0.20904, 396.479, 332.458, 21.2938, 21.0585, 0.0364963, 26.3164, 3.28259e-11, 1.87029, 0.0285219
 303.01, 1.4124, 0.202887, 396.566, 335.639, 21.3039, 21.0634, 0.0364591, 26.2736, 1.25674e-11, 1.82747, 0.0285721
 304.51, 1.36949, 0.196723, 396.657, 337.659, 21.3141, 21.0684, 0.0364218, 26.2307, 4.64461e-12, 1.78457, 0.0286248
 306.01, 1.3265, 0.190549, 396.745, 337.37, 21.3244, 21.0734, 0.0363844, 26.1877, 1.65448e-12, 1.7416, 0.0286709
 307.51, 1.28345, 0.184364, 396.839, 339.411, 21.3349, 21.0786, 0.036347, 26.1447, 5.67093e-13, 1.69855, 0.0287205
 309.01, 1.24032, 0.178168, 396.933, 339.926, 21.3456, 21.0839, 0.0363095, 26.1016, 1.867e-13, 1.65543, 0.0287665
 310.51, 1.19713, 0.171964, 397.027, 341.227, 21.3565, 21.0893, 0.036272, 26.0584, 5.89226e-14, 1.61225, 0.0288097
 312.01, 1.15387, 0.16575, 397.126, 341.781, 21.3675, 21.0948, 0.0362344, 26.0151, 1.77885e-14, 1.56901, 0.0288532
 313.51, 1.11054, 0.159526, 397.23, 343.887, 21.3787, 21.1005, 0.0361967, 25.9718, 5.12539e-15, 1.52569, 0.0288995
 315.01, 1.06715, 0.153294, 397.331, 344.105, 21.3901, 21.1062, 0.036159, 25.9284, 1.406e-15, 1.48231, 0.0289386
 316.51, 1.02371, 0.147053, 397.436, 348.546, 21.4016, 21.112, 0.0361212, 25.885, 3.66334e-16, 1.43887, 0.0289774
 318.01, 0.980203, 0.140803, 397.547, 351.864, 21.4134, 21.118, 0.0360834, 25.8415, 9.0541e-17, 1.39538, 0.0290163
 319.51, 0.936639, 0.134546, 397.662, 353.306, 21.4252, 21.1241, 0.0360455, 25.7979, 2.13229e-17, 1.35182, 0.0290566
 321.01, 0.893018, 0.12828, 397.779, 354.779, 21.4373, 21.1303, 0.0360076, 25.7543, 4.94537e-18, 1.30821, 0.0290918
 322.51, 0.849346, 0.122006, 397.902, 353.63, 21.4495, 21.1366, 0.0359696, 25.7107, 1.31477e-18, 1.26455, 0.0291268
 324.01, 0.805624, 0.115726, 398.028, 353.284, 21.462, 21.143, 0.0359316, 25.667, 5.73391e-19, 1.22083, 0.0291584
 325.51, 0.761853, 0.109438, 398.164, 354.878, 21.4746, 21.1496, 0.0358935, 25.6232, 4.48302e-19, 1.17707, 0.0291921
 327.01, 0.718037, 0.103144, 398.303, 359.54, 21.4873, 21.1562, 0.0358554, 25.5794, 4.29072e-19, 1.13326, 0.029219
 328.51, 0.674184, 0.0968446, 398.451, 358.585, 21.5003, 21.163, 0.0358173, 25.5355, 4.12022e-19, 1.08941, 0.0292446
 330.01, 0.630294, 0.0905399, 398.608, 359.952, 21.5134, 21.1699, 0.0357792, 25.4916, 3.94608e-19, 1.04553, 0.0292668
 331.51, 0.586371, 0.0842306, 398.784, 363.249, 21.5267, 21.177, 0.035741, 25.4477, 3.78812e-19, 1.00161, 0.0292903
 333.01, 0.542419, 0.0779169, 398.938, 364.752, 21.5402, 21.1841, 0.0357027, 25.4038, 3.61785e-19, 0.95766, 0.0293013
 334.51, 0.498466, 0.0716033, 399.048, 365.64, 21.5539, 21.1914, 0.0356645, 25.3598, 3.45849e-19, 0.913709, 0.0293024
 336.01, 0.454511, 0.0652893, 399.175, 368.472, 21.5677, 21.1988, 0.0356263, 25.3159, 3.28811e-19, 0.869754, 0.0293043
 337.51, 0.410555, 0.0589751, 399.32, 369.237, 21.5818, 21.2064, 0.0355881, 25.2719, 3.12956e-19, 0.825798, 0.0293025
 339.01, 0.366611, 0.0526626, 399.49, 372.967, 21.596, 21.214, 0.0355499, 25.228, 2.93668e-19, 0.78185, 0.0292925
 340.51, 0.322692, 0.0463539, 399.685, 378.769, 21.6104, 21.2218, 0.0355117, 25.184, 2.77551e-19, 0.737928, 0.0292719
 342.01, 0.27881, 0.0400503, 399.907, 376.343, 21.625, 21.2298, 0.0354735, 25.1402, 2.62678e-19, 0.694038, 0.0292431
 343.51, 0.234999, 0.033757, 400.175, 381.26, 21.6398, 21.2378, 0.0354354, 25.0963, 2.46078e-19, 0.650214, 0.0291877
 345.01, 0.191302, 0.0274799, 400.427, 384.935, 21.6548, 21.246, 0.0353974, 25.0526, 2.28128e-19, 0.606494, 0.0291006
 346.51, 0.147758, 0.021225, 400.754, 388.087, 21.6699, 21.2544, 0.0353595, 25.009, 2.12177e-19, 0.562922, 0.0289874
 348.01, 0.10443, 0.0150011, 401.16, 391.817, 21.6853, 21.2628, 0.0353218, 24.9657, 1.95364e-19, 0.519556, 0.0288262
 349.51, 0.061427, 0.00882381, 401.428, 394.118, 21.7008, 21.2714, 0.0352843, 24.9226, 1.78194e-19, 0.476491, 0.0285724
 351.01, 0.0187237, 0.00268961, 402.479, 397.251, 21.7166, 21.2802, 0.0352472, 24.8799, 1.61653e-19, 0.433752, 0.0284206
 352.51,-0.0235734,-0.00338625, 403.327, 400.514, 21.7325, 21.289, 0.0352103, 24.8375, 1.46144e-19, 0.39137, 0.0280691
 354.01,-0.065416,-0.00939683, 404.756, 403.45, 21.7486, 21.2981, 0.0351739, 24.7956, 1.30276e-19, 0.349459, 0.0277943
 355.51,-0.106477,-0.0152951, 406.14, 406.463, 21.765, 21.3072, 0.0351381, 24.7544, 1.15552e-19, 0.308266, 0.027241
 357.01,-0.146798,-0.0210871, 407.813, 409.464, 21.7815, 21.3165, 0.0351028, 24.7139, 9.90897e-20, 0.26777, 0.026582
 358.51,-0.185976,-0.0267149, 410.331, 412.727, 21.7982, 21.326, 0.0350687, 24.6746, 8.31076e-20, 0.22845, 0.0259364
 360.01,-0.223841,-0.0321541, 412.722, 415.612, 21.8151, 21.3355, 0.0350355, 24.6364, 6.96029e-20, 0.190285, 0.0246966
 361.51,-0.260133,-0.0373673, 416.628, 419.54, 21.8322, 21.3453, 0.0350037, 24.5999, 5.59631e-20, 0.1538, 0.0239025
 363.01,-0.294134,-0.0422515, 420.364, 422.156, 21.8495, 21.3551, 0.0349737, 24.5654, 4.30283e-20, 0.119308, 0.0218344
 364.51,-0.325913,-0.0468165, 426.467, 427.797, 21.867, 21.3651, 0.0349459, 24.5334, 3.17967e-20, 0.0872561, 0.0207529
 366.01,-0.355242,-0.0510295, 433.984, 434.876, 21.8847, 21.3753, 0.03492, 24.5036, 2.06232e-20, 0.0574658, 0.0188721
 367.51,-0.380927,-0.0547192, 444.666, 445.162, 21.9026, 21.3856, 0.0348971, 24.4772, 1.09882e-20, 0.0311081, 0.0161322
 369.01,-0.40095,-0.0575953, 464.152, 464.318, 21.9206, 21.3961, 0.0348787, 24.4561, 3.39717e-21, 0.00996402, 0.0116348
 370.51,-0.40821,-0.0586382, 521.148, 542.245, 21.9389, 21.4067, 0.03487, 24.4461, 0.0000000E+000, 0.0000000E+000, 0.0000000E+000
 372.01,-0.40821,-0.0586382, 540.32, 561.529, 21.9574, 21.4174, 0.03487, 24.4461, 0.0000000E+000, 0.0000000E+000, 0.0000000E+000
 373.51,-0.40821,-0.0586382, 549.846, 571.11, 21.9761, 21.4283, 0.03487, 24.4461, 0.0000000E+000, 0.0000000E+000, 0.0000000E+000
 375.01,-0.40821,-0.0586382, 556.176, 577.477, 21.995, 21.4394, 0.03487, 24.4461, 0.0000000E+000, 0.0000000E+000, 0.0000000E+000
 376.51,-0.40821,-0.0586382, 560.853, 582.182, 22.0141, 21.4506, 0.03487, 24.4461, 0.0000000E+000, 0.0000000E+000, 0.0000000E+000
 378.01,-0.40821,-0.0586382, 564.542, 585.89, 22.0334, 21.4619, 0.03487, 24.4461, 0.0000000E+000, 0.0000000E+000, 0.0000000E+000
 379.51,-0.40821,-0.0586382, 567.57, 588.934, 22.0529, 21.4735, 0.03487, 24.4461, 0.0000000E+000, 0.0000000E+000, 0.0000000E+000
 381.01,-0.40821,-0.0586382, 570.124, 591.505, 22.0727, 21.4851, 0.03487, 24.4461, 0.0000000E+000, 0.0000000E+000, 0.0000000E+000
 382.51,-0.40821,-0.0586382, 572.33, 593.722, 22.0926, 21.497, 0.03487, 24.4461, 0.0000000E+000, 0.0000000E+000, 0.0000000E+000
 384.01,-0.40821,-0.0586382, 574.261, 595.666, 22.1127, 21.5089, 0.03487, 24.4461, 0.0000000E+000, 0.0000000E+000, 0.0000000E+000
 385.51,-0.40821,-0.0586382, 575.979, 597.39, 22.133, 21.5211, 0.03487, 24.4461, 0.0000000E+000, 0.0000000E+000, 0.0000000E+000
 387.01,-0.40821,-0.0586382, 577.517, 598.933, 22.1536, 21.5334, 0.03487, 24.4461, 0.0000000E+000, 0.0000000E+000, 0.0000000E+000
 388.51,-0.40821,-0.0586382, 578.902, 600.326, 22.1743, 21.5458, 0.03487, 24.4461, 0.0000000E+000, 0.0000000E+000, 0.0000000E+000
 390.01,-0.40821,-0.0586382, 580.157, 601.597, 22.1953, 21.5585, 0.03487, 24.4461, 0.0000000E+000, 0.0000000E+000, 0.0000000E+000
 391.51,-0.40821,-0.0586382, 581.319, 602.763, 22.2164, 21.5712, 0.03487, 24.4461, 0.0000000E+000, 0.0000000E+000, 0.0000000E+000
 393.01,-0.40821,-0.0586382, 582.392, 603.838, 22.2378, 21.5842, 0.03487, 24.4461, 0.0000000E+000, 0.0000000E+000, 0.0000000E+000
 394.51,-0.40821,-0.0586382, 583.382, 604.834, 22.2594, 21.5973, 0.03487, 24.4461, 0.0000000E+000, 0.0000000E+000, 0.0000000E+000
 396.01,-0.40821,-0.0586382, 584.301, 605.763, 22.2812, 21.6105, 0.03487, 24.4461, 0.0000000E+000, 0.0000000E+000, 0.0000000E+000
 397.51,-0.40821,-0.0586382, 585.162, 606.629, 22.3032, 21.624, 0.03487, 24.4461, 0.0000000E+000, 0.0000000E+000, 0.0000000E+000
 399.01,-0.40821,-0.0586382, 585.977, 607.443, 22.3254, 21.6376, 0.03487, 24.4461, 0.0000000E+000, 0.0000000E+000, 0.0000000E+000
 400.51,-0.40821,-0.0586382, 586.745, 608.208, 22.3479, 21.6513, 0.03487, 24.4461, 0.0000000E+000, 0.0000000E+000, 0.0000000E+000
 402.01,-0.40821,-0.0586382, 587.468, 608.933, 22.3705, 21.6652, 0.03487, 24.4461, 0.0000000E+000, 0.0000000E+000, 0.0000000E+000
 403.51,-0.40821,-0.0586382, 588.134, 609.616, 22.3934, 21.6793, 0.03487, 24.4461, 0.0000000E+000, 0.0000000E+000, 0.0000000E+000
 405.01,-0.40821,-0.0586382, 588.786, 610.261, 22.4164, 21.6936, 0.03487, 24.4461, 0.0000000E+000, 0.0000000E+000, 0.0000000E+000
 406.51,-0.40821,-0.0586382, 589.397, 610.876, 22.4397, 21.708, 0.03487, 24.4461, 0.0000000E+000, 0.0000000E+000, 0.0000000E+000
 408.01,-0.40821,-0.0586382, 589.971, 611.459, 22.4633, 21.7226, 0.03487, 24.4461, 0.0000000E+000, 0.0000000E+000, 0.0000000E+000
 409.51,-0.40821,-0.0586382, 590.537, 612.014, 22.487, 21.7374, 0.03487, 24.4461, 0.0000000E+000, 0.0000000E+000, 0.0000000E+000
 411.01,-0.40821,-0.0586382, 591.051, 612.547, 22.511, 21.7523, 0.03487, 24.4461, 0.0000000E+000, 0.0000000E+000, 0.0000000E+000
 412.51,-0.40821,-0.0586382, 591.572, 613.055, 22.5352, 21.7675, 0.03487, 24.4461, 0.0000000E+000, 0.0000000E+000, 0.0000000E+000
 414.01,-0.40821,-0.0586382, 592.045, 613.546, 22.5596, 21.7827, 0.03487, 24.4461, 0.0000000E+000, 0.0000000E+000, 0.0000000E+000
 415.51,-0.40821,-0.0586382, 592.525, 614.011, 22.5842, 21.7982, 0.03487, 24.4461, 0.0000000E+000, 0.0000000E+000, 0.0000000E+000
 417.01,-0.40821,-0.0586382, 592.959, 614.462, 22.6091, 21.8138, 0.03487, 24.4461, 0.0000000E+000, 0.0000000E+000, 0.0000000E+000
 418.51,-0.40821,-0.0586382, 593.404, 614.898, 22.6343, 21.8296, 0.03487, 24.4461, 0.0000000E+000, 0.0000000E+000, 0.0000000E+000
 420.01,-0.40821,-0.0586382, 593.81, 615.313, 22.6596, 21.8456, 0.03487, 24.4461, 0.0000000E+000, 0.0000000E+000, 0.0000000E+000
 421.51,-0.40821,-0.0586382, 594.2, 615.717, 22.6852, 21.8618, 0.03487, 24.4461, 0.0000000E+000, 0.0000000E+000, 0.0000000E+000
 423.01,-0.40821,-0.0586382, 594.604, 616.104, 22.7111, 21.8781, 0.03487, 24.4461, 0.0000000E+000, 0.0000000E+000, 0.0000000E+000
 424.51,-0.40821,-0.0586382, 594.965, 616.479, 22.7372, 21.8947, 0.03487, 24.4461, 0.0000000E+000, 0.0000000E+000, 0.0000000E+000
 426.01,-0.40821,-0.0586382, 595.331, 616.844, 22.7636, 21.9114, 0.03487, 24.4461, 0.0000000E+000, 0.0000000E+000, 0.0000000E+000
 427.51,-0.40821,-0.0586382, 595.683, 617.192, 22.7902, 21.9283, 0.03487, 24.4461, 0.0000000E+000, 0.0000000E+000, 0.0000000E+000
 429.01,-0.40821,-0.0586382, 596.014, 617.535, 22.8171, 21.9453, 0.03487, 24.4461, 0.0000000E+000, 0.0000000E+000, 0.0000000E+000
 430.51,-0.40821,-0.0586382, 596.345, 617.861, 22.8443, 21.9626, 0.03487, 24.4461, 0.0000000E+000, 0.0000000E+000, 0.0000000E+000
 432.01,-0.40821,-0.0586382, 596.667, 618.181, 22.8717, 21.9801, 0.03487, 24.4461, 0.0000000E+000, 0.0000000E+000, 0.0000000E+000
 433.51,-0.40821,-0.0586382, 596.965, 618.489, 22.8995, 21.9977, 0.03487, 24.4461, 0.0000000E+000, 0.0000000E+000, 0.0000000E+000
 435.01,-0.40821,-0.0586382, 597.257, 618.793, 22.9275, 22.0155, 0.03487, 24.4461, 0.0000000E+000, 0.0000000E+000, 0.0000000E+000
 436.51,-0.40821,-0.0586382, 597.566, 619.081, 22.9559, 22.0336, 0.03487, 24.4461, 0.0000000E+000, 0.0000000E+000, 0.0000000E+000
 438.01,-0.40821,-0.0586382, 597.841, 619.367, 22.9845, 22.0518, 0.03487, 24.4461, 0.0000000E+000, 0.0000000E+000, 0.0000000E+000
 439.51,-0.40821,-0.0586382, 598.108, 619.643, 23.0135, 22.0702, 0.03487, 24.4461, 0.0000000E+000, 0.0000000E+000, 0.0000000E+000
 441.01,-0.40821,-0.0586382, 598.397, 619.911, 23.0428, 22.0888, 0.03487, 24.4461, 0.0000000E+000, 0.0000000E+000, 0.0000000E+000
 442.51,-0.40821,-0.0586382, 598.652, 620.175, 23.0725, 22.1076, 0.03487, 24.4461, 0.0000000E+000, 0.0000000E+000, 0.0000000E+000
 444.01,-0.40821,-0.0586382, 598.897, 620.43, 23.1025, 22.1267, 0.03487, 24.4461, 0.0000000E+000, 0.0000000E+000, 0.0000000E+000
 445.51,-0.40821,-0.0586382, 599.139, 620.681, 23.1328, 22.1459, 0.03487, 24.4461, 0.0000000E+000, 0.0000000E+000, 0.0000000E+000
 447.01,-0.40821,-0.0586382, 599.404, 620.923, 23.1635, 22.1654, 0.03487, 24.4461, 0.0000000E+000, 0.0000000E+000, 0.0000000E+000
 448.51,-0.40821,-0.0586382, 599.63, 621.158, 23.1946, 22.185, 0.03487, 24.4461, 0.0000000E+000, 0.0000000E+000, 0.0000000E+000
 450.01,-0.40821,-0.0586382, 599.857, 621.394, 23.2261, 22.2049, 0.03487, 24.4461, 0.0000000E+000, 0.0000000E+000, 0.0000000E+000
 451.51,-0.40821,-0.0586382, 600.075, 621.619, 23.258, 22.225, 0.03487, 24.4461, 0.0000000E+000, 0.0000000E+000, 0.0000000E+000
 453.01,-0.40821,-0.0586382, 600.3, 621.841, 23.2903, 22.2454, 0.03487, 24.4461, 0.0000000E+000, 0.0000000E+000, 0.0000000E+000
 454.51,-0.40821,-0.0586382, 600.528, 622.057, 23.323, 22.2659, 0.03487, 24.4461, 0.0000000E+000, 0.0000000E+000, 0.0000000E+000
 456.01,-0.40821,-0.0586382, 600.731, 622.268, 23.3561, 22.2867, 0.03487, 24.4461, 0.0000000E+000, 0.0000000E+000, 0.0000000E+000
 457.51,-0.40821,-0.0586382, 600.933, 622.477, 23.3896, 22.3077, 0.03487, 24.4461, 0.0000000E+000, 0.0000000E+000, 0.0000000E+000
 459.01,-0.40821,-0.0586382, 601.129, 622.681, 23.4236, 22.329, 0.03487, 24.4461, 0.0000000E+000, 0.0000000E+000, 0.0000000E+000
 460.51,-0.40821,-0.0586382, 601.351, 622.88, 23.458, 22.3505, 0.03487, 24.4461, 0.0000000E+000, 0.0000000E+000, 0.0000000E+000
 462.01,-0.40821,-0.0586382, 601.535, 623.07, 23.4929, 22.3723, 0.03487, 24.4461, 0.0000000E+000, 0.0000000E+000, 0.0000000E+000
 463.51,-0.40821,-0.0586382, 601.721, 623.263, 23.5282, 22.3943, 0.03487, 24.4461, 0.0000000E+000, 0.0000000E+000, 0.0000000E+000
 465.01,-0.40821,-0.0586382, 601.903, 623.451, 23.5641, 22.4165, 0.03487, 24.4461, 0.0000000E+000, 0.0000000E+000, 0.0000000E+000
 466.51,-0.40821,-0.0586382, 602.076, 623.631, 23.6004, 22.4391, 0.03487, 24.4461, 0.0000000E+000, 0.0000000E+000, 0.0000000E+000
 468.01,-0.40821,-0.0586382, 602.251, 623.813, 23.6372, 22.4619, 0.03487, 24.4461, 0.0000000E+000, 0.0000000E+000, 0.0000000E+000
 469.51,-0.40821,-0.0586382, 602.449, 623.986, 23.6745, 22.4849, 0.03487, 24.4461, 0.0000000E+000, 0.0000000E+000, 0.0000000E+000
 471.01,-0.40821,-0.0586382, 602.617, 624.16, 23.7123, 22.5082, 0.03487, 24.4461, 0.0000000E+000, 0.0000000E+000, 0.0000000E+000
 472.51,-0.40821,-0.0586382, 602.779, 624.328, 23.7506, 22.5319, 0.03487, 24.4461, 0.0000000E+000, 0.0000000E+000, 0.0000000E+000
 474.01,-0.40821,-0.0586382, 602.94, 624.495, 23.7895, 22.5558, 0.03487, 24.4461, 0.0000000E+000, 0.0000000E+000, 0.0000000E+000
 475.51,-0.40821,-0.0586382, 603.099, 624.66, 23.8289, 22.5799, 0.03487, 24.4461, 0.0000000E+000, 0.0000000E+000, 0.0000000E+000
 477.01,-0.40821,-0.0586382, 603.256, 624.823, 23.8688, 22.6044, 0.03487, 24.4461, 0.0000000E+000, 0.0000000E+000, 0.0000000E+000
 478.51,-0.40821,-0.0586382, 603.432, 624.973, 23.9092, 22.6292, 0.03487, 24.4461, 0.0000000E+000, 0.0000000E+000, 0.0000000E+000
 480.01,-0.40821,-0.0586382, 603.583, 625.13, 23.9502, 22.6543, 0.03487, 24.4461, 0.0000000E+000, 0.0000000E+000, 0.0000000E+000
 481.51,-0.40821,-0.0586382, 603.731, 625.284, 23.9918, 22.6797, 0.03487, 24.4461, 0.0000000E+000, 0.0000000E+000, 0.0000000E+000
 483.01,-0.40821,-0.0586382, 603.877, 625.435, 24.0339, 22.7054, 0.03487, 24.4461, 0.0000000E+000, 0.0000000E+000, 0.0000000E+000
 484.51,-0.40821,-0.0586382, 604.017, 625.58, 24.0766, 22.7314, 0.03487, 24.4461, 0.0000000E+000, 0.0000000E+000, 0.0000000E+000
 486.01,-0.40821,-0.0586382, 604.158, 625.726, 24.1199, 22.7577, 0.03487, 24.4461, 0.0000000E+000, 0.0000000E+000, 0.0000000E+000
 487.51,-0.40821,-0.0586382, 604.322, 625.869, 24.1637, 22.7844, 0.03487, 24.4461, 0.0000000E+000, 0.0000000E+000, 0.0000000E+000
 489.01,-0.40821,-0.0586382, 604.459, 626.007, 24.2081, 22.8114, 0.03487, 24.4461, 0.0000000E+000, 0.0000000E+000, 0.0000000E+000
 490.51,-0.40821,-0.0586382, 604.594, 626.147, 24.2531, 22.8387, 0.03487, 24.4461, 0.0000000E+000, 0.0000000E+000, 0.0000000E+000
 492.01,-0.40821,-0.0586382, 604.724, 626.281, 24.2987, 22.8664, 0.03487, 24.4461, 0.0000000E+000, 0.0000000E+000, 0.0000000E+000
 493.51,-0.40821,-0.0586382, 604.852, 626.415, 24.3449, 22.8944, 0.03487, 24.4461, 0.0000000E+000, 0.0000000E+000, 0.0000000E+000
 495.01,-0.40821,-0.0586382, 604.981, 626.548, 24.3916, 22.9228, 0.03487, 24.4461, 0.0000000E+000, 0.0000000E+000, 0.0000000E+000
 496.51,-0.40821,-0.0586382, 605.107, 626.679, 24.439, 22.9515, 0.03487, 24.4461, 0.0000000E+000, 0.0000000E+000, 0.0000000E+000
 498.01,-0.40821,-0.0586382, 605.232, 626.808, 24.4869, 22.9806, 0.03487, 24.4461, 0.0000000E+000, 0.0000000E+000, 0.0000000E+000
 499.51,-0.40821,-0.0586382, 605.378, 626.928, 24.5355, 23.01, 0.03487, 24.4461, 0.0000000E+000, 0.0000000E+000, 0.0000000E+000
 500,-0.40821,-0.0586382, 605.417, 626.969, 24.5517, 23.0198, 0.03487, 24.4461, 0.0000000E+000, 0.0000000E+000, 0.0000000E+000