File: PMMA/Calibration_Results/NIST_FSRI/All_Props/BUW_FZJ_B[NIST_FSRI]_Gasification_q50_R3_Mass.csv
s,kg/m2,,C,C,C,C,m,kg/m2,kg/m2,kg/m2,kg/m2/s
Time,"SD","MF","TW1","TSB1","TAL1","TB1","DX1","SD1","SD_11","SD_12","BR1"
 0.0000000E+000, 6.96203, 1.00008, 20.9, 20.9, 20.9, 20.9, 0.040972, 31.8164, 0.184256, 7.18598, 0.0000000E+000
 1.5, 6.96203, 1.00008, 101.124, 20.9, 20.9, 20.9, 0.040972, 31.8164, 0.184256, 7.18598, 9.4654e-15
 3.01, 6.96203, 1.00008, 137.857, 20.9, 20.9, 20.9, 0.040972, 31.8164, 0.184256, 7.18598, 2.47624e-12
 4.51, 6.96203, 1.00008, 164.207, 20.9016, 20.9, 20.9, 0.040972, 31.8164, 0.184256, 7.18598, 7.87792e-11
 6.01, 6.96203, 1.00008, 185.562, 20.9206, 20.9, 20.9, 0.040972, 31.8164, 0.184256, 7.18598, 9.75811e-10
 7.51, 6.96203, 1.00008, 203.763, 21.0065, 20.9, 20.9, 0.040972, 31.8164, 0.184256, 7.18598, 6.9798e-09
 9.01, 6.96203, 1.00008, 219.729, 21.234, 20.9, 20.9, 0.040972, 31.8164, 0.184256, 7.18598, 3.47971e-08
 10.51, 6.96203, 1.00008, 233.999, 21.6784, 20.9, 20.9, 0.040972, 31.8164, 0.184256, 7.18598, 1.34324e-07
 12.01, 6.96203, 1.00008, 246.923, 22.3985, 20.9, 20.9, 0.040972, 31.8164, 0.184256, 7.18598, 4.28459e-07
 13.51, 6.96203, 1.00008, 258.745, 23.4314, 20.9, 20.9, 0.040972, 31.8164, 0.184256, 7.18598, 1.17901e-06
 15.01, 6.96202, 1.00008, 269.64, 24.7942, 20.9, 20.9, 0.040972, 31.8164, 0.184256, 7.18598, 2.88413e-06
 16.51, 6.96202, 1.00007, 279.741, 26.4891, 20.9, 20.9, 0.040972, 31.8163, 0.184256, 7.18597, 6.40989e-06
 18, 6.962, 1.00007, 289.122, 28.4998, 20.9, 20.9, 0.040972, 31.8163, 0.184256, 7.18596, 1.31243e-05
 19.5, 6.96197, 1.00007, 297.895, 30.8155, 20.9, 20.9, 0.040972, 31.8163, 0.184256, 7.18593, 2.5135e-05
 21, 6.96191, 1.00006, 306.153, 33.4251, 20.9, 20.9, 0.0409719, 31.8163, 0.184256, 7.18588, 4.55388e-05
 22.5, 6.96181, 1.00004, 313.915, 36.2991, 20.9, 20.9, 0.0409718, 31.8162, 0.184256, 7.18579, 7.84674e-05
 24, 6.96165, 1.00002, 321.219, 39.4141, 20.9, 20.9, 0.0409717, 31.816, 0.184256, 7.18563, 0.000129354
 25.5, 6.96138, 0.999983, 328.096, 42.7472, 20.9, 20.9, 0.0409715, 31.8158, 0.184256, 7.18539, 0.000204962
 27, 6.96097, 0.999923, 334.565, 46.2759, 20.9, 20.9, 0.0409712, 31.8154, 0.184256, 7.185, 0.000313292
 28.5, 6.96035, 0.999835, 340.64, 49.9793, 20.9, 20.9, 0.0409707, 31.8148, 0.184256, 7.18442, 0.000463249
 30, 6.95946, 0.999707, 346.325, 53.8374, 20.9, 20.9, 0.04097, 31.814, 0.184256, 7.18358, 0.000664037
 31.5, 6.95821, 0.999527, 351.623, 57.8317, 20.9, 20.9, 0.040969, 31.8128, 0.184256, 7.1824, 0.000924242
 33, 6.9565, 0.999281, 356.533, 61.945, 20.9, 20.9, 0.0409677, 31.8111, 0.184256, 7.18077, 0.00125069
 34.5, 6.95423, 0.998955, 361.052, 66.1616, 20.9, 20.9, 0.0409659, 31.809, 0.184256, 7.1786, 0.00164726
 36, 6.95129, 0.998534, 365.182, 70.4667, 20.9, 20.9, 0.0409636, 31.8062, 0.184256, 7.17578, 0.00211398
 37.5, 6.94759, 0.998002, 368.928, 74.8467, 20.9, 20.9, 0.0409606, 31.8026, 0.184256, 7.17222, 0.00264656
 39, 6.94303, 0.997347, 372.301, 79.2891, 20.9, 20.9, 0.0409569, 31.7982, 0.184256, 7.1678, 0.00323678
 40.5, 6.93754, 0.996558, 375.32, 83.782, 20.9, 20.9, 0.0409525, 31.7928, 0.184256, 7.16247, 0.00387338
 42, 6.93105, 0.995626, 378.006, 88.3146, 20.9, 20.9, 0.0409473, 31.7865, 0.184256, 7.15615, 0.00454359
 43.51, 6.92354, 0.994547, 380.396, 92.8912, 20.9, 20.9, 0.0409412, 31.7792, 0.184256, 7.14879, 0.00523679
 45.01, 6.91498, 0.993318, 382.512, 97.4881, 20.9, 20.9, 0.0409342, 31.7707, 0.184256, 7.14037, 0.00593906
 46.51, 6.90538, 0.991938, 384.378, 102.08, 20.9, 20.9, 0.0409264, 31.7613, 0.184256, 7.13093, 0.00663801
 48.01, 6.89473, 0.990408, 386.031, 106.673, 20.9, 20.9, 0.0409177, 31.7508, 0.184256, 7.12045, 0.00732835
 49.51, 6.88306, 0.988732, 387.5, 111.26, 20.9, 20.9, 0.0409082, 31.7393, 0.184256, 7.10894, 0.00800487
 51.01, 6.87039, 0.986912, 388.811, 115.833, 20.9, 20.9, 0.0408979, 31.7268, 0.184256, 7.09643, 0.00866385
 52.51, 6.85675, 0.984953, 389.985, 120.385, 20.9, 20.9, 0.0408867, 31.7133, 0.184256, 7.08295, 0.00930374
 54.01, 6.84217, 0.982859, 391.042, 124.91, 20.9, 20.9, 0.0408747, 31.6989, 0.184256, 7.06852, 0.00992345
 55.51, 6.82669, 0.980634, 391.999, 129.402, 20.9, 20.9, 0.040862, 31.6836, 0.184256, 7.05317, 0.0105231
 57.01, 6.81032, 0.978283, 392.869, 133.857, 20.9, 20.9, 0.0408486, 31.6673, 0.184256, 7.03695, 0.0111031
 58.51, 6.7931, 0.97581, 393.663, 138.269, 20.9, 20.9, 0.0408345, 31.6502, 0.184256, 7.01986, 0.0116642
 60.01, 6.77506, 0.973218, 394.392, 142.634, 20.9, 20.9, 0.0408196, 31.6323, 0.184256, 7.00195, 0.0122076
 61.51, 6.75622, 0.970512, 395.068, 146.952, 20.9, 20.9, 0.0408041, 31.6136, 0.184256, 6.98324, 0.0127359
 63.01, 6.7366, 0.967694, 395.693, 151.217, 20.9, 20.9, 0.040788, 31.5941, 0.184256, 6.96374, 0.0132487
 64.51, 6.71623, 0.964768, 396.272, 155.428, 20.9, 20.9, 0.0407712, 31.5739, 0.184256, 6.94349, 0.0137459
 66.01, 6.69512, 0.961736, 396.819, 159.583, 20.9, 20.9, 0.0407539, 31.5529, 0.184256, 6.9225, 0.0142326
 67.51, 6.6733, 0.958601, 397.327, 163.681, 20.9, 20.9, 0.0407359, 31.5312, 0.184256, 6.90079, 0.0147053
 69.01, 6.65078, 0.955365, 397.809, 167.72, 20.9, 20.9, 0.0407173, 31.5088, 0.184256, 6.87838, 0.015169
 70.51, 6.62757, 0.952032, 398.26, 171.7, 20.9, 20.9, 0.0406982, 31.4857, 0.184256, 6.85528, 0.0156201
 72.01, 6.60369, 0.948602, 398.692, 175.621, 20.9, 20.9, 0.0406785, 31.4619, 0.184256, 6.83151, 0.0160649
 73.5, 6.57916, 0.945078, 399.093, 179.455, 20.9, 20.9, 0.0406584, 31.4376, 0.184256, 6.80725, 0.0164941
 75, 6.55399, 0.941462, 399.484, 183.256, 20.9, 20.9, 0.0406377, 31.4126, 0.184256, 6.78218, 0.016923
 76.5, 6.52818, 0.937755, 399.851, 186.997, 20.9, 20.9, 0.0406164, 31.3869, 0.184256, 6.75648, 0.0173401
 78, 6.50175, 0.933959, 400.207, 190.678, 20.9, 20.9, 0.0405946, 31.3605, 0.184256, 6.73015, 0.0177532
 79.5, 6.47471, 0.930075, 400.544, 194.3, 20.9, 20.9, 0.0405723, 31.3336, 0.184256, 6.70321, 0.0181581
 81, 6.44708, 0.926104, 400.864, 197.863, 20.9, 20.9, 0.0405495, 31.3061, 0.184256, 6.67567, 0.0185544
 82.5, 6.41884, 0.922049, 401.18, 201.367, 20.9, 20.9, 0.0405262, 31.2779, 0.184256, 6.64754, 0.0189503
 84, 6.39003, 0.91791, 401.477, 204.813, 20.9001, 20.9, 0.0405024, 31.2492, 0.184256, 6.61882, 0.0193364
 85.5, 6.36064, 0.913688, 401.762, 208.202, 20.9001, 20.9, 0.0404782, 31.2199, 0.184256, 6.58953, 0.0197157
 87, 6.33068, 0.909384, 402.045, 211.535, 20.9001, 20.9, 0.0404535, 31.19, 0.184256, 6.55966, 0.0200968
 88.5, 6.30016, 0.905, 402.31, 214.811, 20.9001, 20.9, 0.0404283, 31.1596, 0.184256, 6.52924, 0.0204668
 90, 6.26909, 0.900537, 402.568, 218.032, 20.9001, 20.9, 0.0404026, 31.1286, 0.184256, 6.49826, 0.0208335
 91.5, 6.23747, 0.895995, 402.822, 221.198, 20.9002, 20.9, 0.0403765, 31.0971, 0.184256, 6.46673, 0.0211985
 93, 6.20531, 0.891375, 403.064, 224.309, 20.9002, 20.9, 0.04035, 31.065, 0.184256, 6.43466, 0.0215579
 94.5, 6.17262, 0.886679, 403.297, 227.367, 20.9002, 20.9, 0.040323, 31.0324, 0.184256, 6.40205, 0.021911
 96, 6.1394, 0.881907, 403.523, 230.372, 20.9003, 20.9, 0.0402955, 30.9993, 0.184256, 6.36892, 0.0222599
 97.5, 6.10565, 0.877059, 403.751, 233.324, 20.9003, 20.9, 0.0402677, 30.9656, 0.184256, 6.33526, 0.0226118
 99, 6.07138, 0.872137, 403.965, 236.225, 20.9004, 20.9, 0.0402394, 30.9315, 0.184256, 6.30108, 0.0229549
 100.5, 6.03661, 0.867142, 404.171, 239.073, 20.9005, 20.9, 0.0402106, 30.8968, 0.184256, 6.26639, 0.0232918
 102, 6.00133, 0.862075, 404.377, 241.871, 20.9005, 20.9001, 0.0401815, 30.8616, 0.184256, 6.2312, 0.0236297
 103.5, 5.96555, 0.856934, 404.579, 244.618, 20.9006, 20.9001, 0.040152, 30.8259, 0.184256, 6.1955, 0.0239666
 105, 5.92926, 0.851722, 404.771, 247.315, 20.9007, 20.9001, 0.040122, 30.7897, 0.184256, 6.1593, 0.0242949
 106.5, 5.89249, 0.84644, 404.959, 249.961, 20.9009, 20.9001, 0.0400916, 30.753, 0.184256, 6.12261, 0.0246222
 108, 5.85523, 0.841088, 405.141, 252.559, 20.901, 20.9001, 0.0400608, 30.7158, 0.184256, 6.08543, 0.0249437
 109.5, 5.81749, 0.835666, 405.328, 255.106, 20.9011, 20.9001, 0.0400296, 30.6781, 0.184256, 6.04776, 0.0252694
 111, 5.77926, 0.830175, 405.504, 257.605, 20.9013, 20.9002, 0.0399981, 30.64, 0.184256, 6.00962, 0.0255883
 112.5, 5.74056, 0.824615, 405.676, 260.055, 20.9015, 20.9002, 0.0399661, 30.6014, 0.184256, 5.971, 0.0259029
 114, 5.70139, 0.818989, 405.842, 262.455, 20.9017, 20.9002, 0.0399337, 30.5623, 0.184256, 5.93191, 0.0262124
 115.5, 5.66176, 0.813296, 406.011, 264.807, 20.9019, 20.9002, 0.039901, 30.5227, 0.184256, 5.89235, 0.0265234
 117, 5.62166, 0.807536, 406.177, 267.11, 20.9022, 20.9003, 0.0398678, 30.4827, 0.184256, 5.85233, 0.0268348
 118.5, 5.5811, 0.80171, 406.334, 269.365, 20.9024, 20.9003, 0.0398343, 30.4422, 0.184256, 5.81185, 0.0271367
 120, 5.5401, 0.79582, 406.488, 271.571, 20.9028, 20.9004, 0.0398004, 30.4013, 0.184256, 5.77091, 0.0274347
 121.5, 5.49864, 0.789865, 406.643, 273.729, 20.9031, 20.9004, 0.0397662, 30.3599, 0.184256, 5.72954, 0.0277333
 123, 5.45675, 0.783846, 406.798, 275.835, 20.9034, 20.9005, 0.0397315, 30.3181, 0.184256, 5.68771, 0.0280301
 124.5, 5.4144, 0.777764, 406.948, 277.887, 20.9038, 20.9005, 0.0396965, 30.2758, 0.184256, 5.64544, 0.0283232
 126, 5.37163, 0.77162, 407.092, 279.89, 20.9043, 20.9006, 0.0396612, 30.2331, 0.184256, 5.60274, 0.0286086
 127.5, 5.32843, 0.765414, 407.237, 281.845, 20.9047, 20.9007, 0.0396255, 30.19, 0.184256, 5.55961, 0.0288933
 129, 5.28481, 0.759148, 407.378, 283.751, 20.9052, 20.9008, 0.0395894, 30.1464, 0.184256, 5.51606, 0.0291724
 130.5, 5.24077, 0.752822, 407.521, 285.609, 20.9058, 20.9009, 0.039553, 30.1025, 0.184256, 5.47209, 0.0294492
 132, 5.19632, 0.746437, 407.661, 287.419, 20.9064, 20.901, 0.0395163, 30.0581, 0.184256, 5.42771, 0.0297231
 133.5, 5.15146, 0.739993, 407.8, 289.182, 20.907, 20.9011, 0.0394792, 30.0133, 0.184256, 5.38292, 0.0299922
 135, 5.10621, 0.733493, 407.933, 290.898, 20.9077, 20.9012, 0.0394418, 29.9681, 0.184256, 5.33773, 0.0302527
 136.5, 5.06057, 0.726937, 408.064, 292.567, 20.9084, 20.9014, 0.0394041, 29.9225, 0.184256, 5.29216, 0.0305067
 138, 5.01456, 0.720327, 408.196, 294.19, 20.9092, 20.9015, 0.039366, 29.8766, 0.184256, 5.24621, 0.0307574
 139.5, 4.96816, 0.713663, 408.335, 295.767, 20.9101, 20.9017, 0.0393277, 29.8302, 0.184256, 5.19987, 0.0310123
 141, 4.9214, 0.706946, 408.464, 297.298, 20.911, 20.9019, 0.039289, 29.7835, 0.184256, 5.15317, 0.031251
 142.5, 4.87429, 0.700178, 408.591, 298.784, 20.9119, 20.9021, 0.03925, 29.7365, 0.184256, 5.10612, 0.0314842
 144, 4.82683, 0.693361, 408.719, 300.224, 20.9129, 20.9023, 0.0392108, 29.6891, 0.184256, 5.05872, 0.0317117
 145.5, 4.77904, 0.686496, 408.846, 301.621, 20.914, 20.9025, 0.0391713, 29.6414, 0.184256, 5.01098, 0.0319328
 147, 4.73092, 0.679584, 408.977, 302.974, 20.9151, 20.9027, 0.0391315, 29.5933, 0.184256, 4.96292, 0.0321509
 148.5, 4.68248, 0.672626, 409.104, 304.288, 20.9164, 20.903, 0.0390914, 29.5449, 0.184256, 4.91453, 0.0323603
 150, 4.63374, 0.665624, 409.228, 305.56, 20.9176, 20.9033, 0.0390511, 29.4962, 0.184256, 4.86584, 0.0325593
 151.5, 4.5847, 0.65858, 409.355, 306.795, 20.919, 20.9036, 0.0390105, 29.4472, 0.184256, 4.81685, 0.0327538
 153, 4.53539, 0.651495, 409.479, 307.993, 20.9204, 20.9039, 0.0389697, 29.398, 0.184256, 4.76758, 0.0329399
 154.5, 4.4858, 0.644372, 409.602, 309.154, 20.9219, 20.9043, 0.0389287, 29.3484, 0.184256, 4.71803, 0.0331153
 156, 4.43595, 0.637211, 409.733, 310.282, 20.9235, 20.9047, 0.0388875, 29.2986, 0.184256, 4.66823, 0.0332901
 157.5, 4.38584, 0.630014, 409.861, 311.377, 20.9252, 20.9051, 0.038846, 29.2485, 0.184256, 4.61816, 0.0334583
 159, 4.3355, 0.622782, 409.986, 312.441, 20.927, 20.9055, 0.0388044, 29.1982, 0.184256, 4.56786, 0.0336135
 160.51, 4.28493, 0.615518, 410.111, 313.483, 20.9288, 20.9059, 0.0387623, 29.1474, 0.184256, 4.51698, 0.0337615
 162.01, 4.23414, 0.608223, 410.236, 314.489, 20.9307, 20.9064, 0.0387203, 29.0966, 0.184256, 4.46624, 0.0339002
 163.51, 4.18315, 0.600898, 410.369, 315.469, 20.9328, 20.9069, 0.0386781, 29.0457, 0.184256, 4.41528, 0.0340399
 165.01, 4.13196, 0.593545, 410.501, 316.424, 20.9349, 20.9075, 0.0386357, 28.9945, 0.184256, 4.36412, 0.0341713
 166.51, 4.08058, 0.586165, 410.629, 317.355, 20.9371, 20.9081, 0.0385932, 28.9431, 0.184256, 4.31277, 0.0342901
 168.01, 4.02904, 0.57876, 410.759, 318.265, 20.9394, 20.9087, 0.0385505, 28.8916, 0.184256, 4.26125, 0.0344034
 169.51, 3.97732, 0.571331, 410.892, 319.154, 20.9418, 20.9093, 0.0385077, 28.8399, 0.184256, 4.20956, 0.0345137
 171.01, 3.92545, 0.56388, 411.025, 320.025, 20.9443, 20.91, 0.0384648, 28.7881, 0.184256, 4.15771, 0.0346133
 172.51, 3.87343, 0.556407, 411.165, 320.88, 20.947, 20.9107, 0.0384218, 28.7361, 0.184256, 4.10572, 0.0347137
 174.01, 3.82127, 0.548914, 411.303, 321.719, 20.9497, 20.9115, 0.0383786, 28.684, 0.184256, 4.05357, 0.0348045
 175.51, 3.76898, 0.541403, 411.442, 322.544, 20.9525, 20.9123, 0.0383353, 28.6317, 0.184256, 4.0013, 0.0348889
 177.01, 3.71656, 0.533874, 411.583, 323.357, 20.9555, 20.9131, 0.0382919, 28.5793, 0.184256, 3.94891, 0.0349696
 178.51, 3.66403, 0.526328, 411.726, 324.159, 20.9585, 20.914, 0.0382485, 28.5268, 0.184256, 3.8964, 0.0350438
 180.01, 3.6114, 0.518767, 411.875, 324.952, 20.9617, 20.9149, 0.0382049, 28.4742, 0.184256, 3.84378, 0.0351145
 181.51, 3.55865, 0.511191, 412.027, 325.737, 20.965, 20.9159, 0.0381613, 28.4214, 0.184256, 3.79105, 0.0351845
 183.01, 3.50581, 0.5036, 412.179, 326.516, 20.9684, 20.917, 0.0381175, 28.3686, 0.184256, 3.73823, 0.0352478
 184.51, 3.45289, 0.495997, 412.332, 327.288, 20.972, 20.918, 0.0380737, 28.3157, 0.184256, 3.68531, 0.035304
 186.01, 3.39988, 0.488383, 412.487, 328.055, 20.9756, 20.9192, 0.0380298, 28.2627, 0.184256, 3.63232, 0.0353567
 187.51, 3.34678, 0.480756, 412.656, 328.818, 20.9794, 20.9203, 0.0379859, 28.2096, 0.184256, 3.57924, 0.0354148
 189.01, 3.29361, 0.473118, 412.821, 329.579, 20.9833, 20.9216, 0.0379419, 28.1565, 0.184256, 3.52608, 0.0354646
 190.51, 3.24037, 0.46547, 412.988, 330.338, 20.9873, 20.9228, 0.0378978, 28.1032, 0.184256, 3.47285, 0.0355076
 192.01, 3.18707, 0.457813, 413.16, 331.097, 20.9915, 20.9242, 0.0378537, 28.0499, 0.184256, 3.41955, 0.0355508
 193.51, 3.1337, 0.450147, 413.339, 331.854, 20.9958, 20.9256, 0.0378095, 27.9966, 0.184256, 3.36619, 0.0355931
 195.01, 3.08027, 0.442471, 413.523, 332.612, 21.0002, 20.927, 0.0377653, 27.9431, 0.184256, 3.31277, 0.0356335
 196.51, 3.02678, 0.434788, 413.708, 333.371, 21.0048, 20.9286, 0.037721, 27.8897, 0.184256, 3.25929, 0.0356689
 198.01, 2.97324, 0.427098, 413.9, 334.134, 21.0095, 20.9301, 0.0376767, 27.8361, 0.184256, 3.20576, 0.0357042
 199.51, 2.91965, 0.4194, 414.094, 334.899, 21.0143, 20.9318, 0.0376323, 27.7826, 0.184256, 3.15218, 0.0357343
 201.01, 2.86602, 0.411696, 414.299, 335.667, 21.0193, 20.9335, 0.0375879, 27.7289, 0.184256, 3.09856, 0.0357677
 202.51, 2.81234, 0.403985, 414.505, 336.44, 21.0244, 20.9353, 0.0375435, 27.6753, 0.184256, 3.04488, 0.0357946
 204.01, 2.75862, 0.396268, 414.719, 337.217, 21.0297, 20.9371, 0.037499, 27.6215, 0.184256, 2.99117, 0.0358227
 205.51, 2.70486, 0.388546, 414.938, 338.001, 21.0351, 20.939, 0.0374545, 27.5678, 0.184256, 2.93742, 0.0358478
 207.01, 2.65107, 0.380818, 415.163, 338.792, 21.0406, 20.941, 0.03741, 27.514, 0.184256, 2.88363, 0.0358701
 208.51, 2.59724, 0.373086, 415.399, 339.589, 21.0463, 20.9431, 0.0373654, 27.4602, 0.184256, 2.8298, 0.0358962
 210.01, 2.54337, 0.365348, 415.637, 340.393, 21.0522, 20.9452, 0.0373208, 27.4063, 0.184256, 2.77595, 0.0359154
 211.51, 2.48948, 0.357607, 415.881, 341.205, 21.0582, 20.9474, 0.0372762, 27.3524, 0.184256, 2.72206, 0.0359318
 213.01, 2.43556, 0.349862, 416.141, 342.026, 21.0643, 20.9497, 0.0372316, 27.2985, 0.184256, 2.66814, 0.0359546
 214.51, 2.38161, 0.342112, 416.402, 342.857, 21.0706, 20.952, 0.0371869, 27.2446, 0.184256, 2.6142, 0.0359697
 216.01, 2.32765, 0.33436, 416.672, 343.699, 21.077, 20.9545, 0.0371422, 27.1906, 0.184256, 2.56024, 0.0359843
 217.51, 2.27365, 0.326604, 416.955, 344.551, 21.0836, 20.957, 0.0370975, 27.1366, 0.184256, 2.50625, 0.0359998
 219.01, 2.21964, 0.318845, 417.243, 345.413, 21.0904, 20.9596, 0.0370528, 27.0826, 0.184256, 2.45224, 0.0360122
 220.51, 2.16561, 0.311084, 417.54, 346.287, 21.0973, 20.9623, 0.0370081, 27.0286, 0.184256, 2.39821, 0.036022
 222.01, 2.11157, 0.303321, 417.851, 347.173, 21.1043, 20.9651, 0.0369633, 26.9745, 0.184256, 2.34417, 0.0360333
 223.51, 2.05751, 0.295555, 418.169, 348.073, 21.1116, 20.9679, 0.0369186, 26.9205, 0.184256, 2.29011, 0.0360427
 225.01, 2.00344, 0.287788, 418.497, 348.987, 21.1189, 20.9709, 0.0368738, 26.8664, 0.184256, 2.23604, 0.036048
 226.51, 1.94936, 0.28002, 418.838, 349.915, 21.1265, 20.9739, 0.0368291, 26.8123, 0.184256, 2.18197, 0.0360562
 228.01, 1.89527, 0.27225, 419.186, 350.86, 21.1342, 20.977, 0.0367843, 26.7583, 0.184256, 2.12788, 0.0360594
 229.51, 1.84117, 0.26448, 419.537, 351.82, 21.142, 20.9802, 0.0367395, 26.7042, 0.184256, 2.07378, 0.0360683
 231.01, 1.78706, 0.256706, 419.871, 352.798, 21.15, 20.9835, 0.0366947, 26.65, 0.184256, 2.01967, 0.0360801
 232.51, 1.73293, 0.24893, 420.19, 353.795, 21.1582, 20.9869, 0.0366499, 26.5959, 0.184256, 1.96554, 0.0360951
 234.01, 1.67877, 0.24115, 420.493, 354.81, 21.1665, 20.9904, 0.036605, 26.5418, 0.184256, 1.91139, 0.0361106
 235.51, 1.62459, 0.233367, 420.784, 355.845, 21.175, 20.994, 0.0365602, 26.4876, 0.184256, 1.85721, 0.0361266
 237.01, 1.57038, 0.225581, 421.066, 356.901, 21.1837, 20.9977, 0.0365153, 26.4334, 0.184256, 1.80301, 0.0361407
 238.51, 1.51616, 0.217792, 421.345, 357.979, 21.1925, 21.0015, 0.0364704, 26.3792, 0.184256, 1.74879, 0.0361559
 240.01, 1.46191, 0.209999, 421.622, 359.081, 21.2015, 21.0054, 0.0364255, 26.3249, 0.184256, 1.69454, 0.0361687
 241.51, 1.40765, 0.202205, 421.903, 360.208, 21.2106, 21.0094, 0.0363806, 26.2707, 0.184256, 1.64028, 0.0361784
 243.01, 1.35337, 0.194408, 422.195, 361.363, 21.2199, 21.0135, 0.0363356, 26.2164, 0.184256, 1.58601, 0.0361859
 244.51, 1.29909, 0.18661, 422.502, 362.548, 21.2294, 21.0177, 0.0362907, 26.1621, 0.184256, 1.53173, 0.0361909
 246.01, 1.2448, 0.178812, 422.827, 363.763, 21.239, 21.022, 0.0362458, 26.1078, 0.184256, 1.47744, 0.0361917
 247.51, 1.19051, 0.171013, 423.169, 365.01, 21.2488, 21.0264, 0.0362008, 26.0535, 0.184256, 1.42315, 0.036194
 249.01, 1.13622, 0.163215, 423.525, 366.294, 21.2588, 21.0309, 0.0361559, 25.9992, 0.184256, 1.36886, 0.0361934
 250.51, 1.08193, 0.155417, 423.896, 367.616, 21.269, 21.0355, 0.0361109, 25.9449, 0.184256, 1.31457, 0.0361895
 252.01, 1.02765, 0.147619, 424.284, 368.979, 21.2793, 21.0402, 0.036066, 25.8907, 0.184256, 1.26029, 0.0361841
 253.51, 0.973386, 0.139824, 424.692, 370.385, 21.2897, 21.0451, 0.036021, 25.8364, 0.184256, 1.20602, 0.0361744
 255.01, 0.919139, 0.132032, 425.12, 371.84, 21.3004, 21.05, 0.0359761, 25.7821, 0.184256, 1.15177, 0.0361605
 256.51, 0.864915, 0.124243, 425.57, 373.346, 21.3112, 21.0551, 0.0359312, 25.7279, 0.184256, 1.09754, 0.0361431
 258.01, 0.810721, 0.116458, 426.045, 374.908, 21.3221, 21.0603, 0.0358864, 25.6737, 0.184256, 1.04334, 0.0361204
 259.51, 0.756567, 0.108679, 426.551, 376.532, 21.3333, 21.0655, 0.0358415, 25.6196, 0.184256, 0.989182, 0.0360931
 261.01, 0.70246, 0.100906, 427.092, 378.223, 21.3446, 21.071, 0.0357967, 25.5654, 0.184256, 0.935068, 0.0360585
 262.51, 0.648414, 0.0931428, 427.674, 379.987, 21.356, 21.0765, 0.035752, 25.5114, 0.184256, 0.881011, 0.0360158
 264.01, 0.594441, 0.0853897, 428.304, 381.835, 21.3677, 21.0821, 0.0357073, 25.4574, 0.184256, 0.827025, 0.0359645
 265.51, 0.540557, 0.0776495, 428.989, 383.774, 21.3795, 21.0879, 0.0356626, 25.4035, 0.184256, 0.773126, 0.0359004
 267.01, 0.486782, 0.0699248, 429.74, 385.816, 21.3915, 21.0937, 0.0356181, 25.3497, 0.184256, 0.719332, 0.0358234
 268.51, 0.433138, 0.0622191, 430.57, 387.974, 21.4036, 21.0997, 0.0355737, 25.296, 0.184256, 0.665666, 0.0357296
 270.01, 0.379655, 0.0545364, 431.493, 390.266, 21.4159, 21.1058, 0.0355294, 25.2425, 0.184256, 0.612155, 0.0356158
 271.51, 0.326368, 0.0468818, 432.529, 392.711, 21.4284, 21.1121, 0.0354852, 25.1892, 0.184256, 0.558834, 0.0354765
 273.01, 0.273321, 0.0392617, 433.703, 395.337, 21.441, 21.1184, 0.0354413, 25.1361, 0.184256, 0.505745, 0.035305
 274.51, 0.22057, 0.0316843, 435.048, 398.176, 21.4538, 21.1249, 0.0353976, 25.0833, 0.184256, 0.452943, 0.0350927
 276.01, 0.16819, 0.02416, 436.607, 401.273, 21.4668, 21.1315, 0.0353541, 25.0309, 0.184256, 0.400499, 0.034827
 277.51, 0.116278, 0.016703, 438.438, 404.69, 21.4799, 21.1382, 0.0353111, 24.9789, 0.184256, 0.348504, 0.0344893
 279.01, 0.0649678, 0.00933244, 440.627, 408.511, 21.4932, 21.145, 0.0352685, 24.9275, 0.184256, 0.297088, 0.0340527
 280.51, 0.0144489, 0.00207555, 443.295, 412.862, 21.5067, 21.152, 0.0352266, 24.8768, 0.184256, 0.246427, 0.0334735
 282.01,-0.0349958,-0.00502706, 446.631, 417.936, 21.5203, 21.1591, 0.0351855, 24.8272, 0.184256, 0.196788, 0.0326785
 283.51,-0.0829467,-0.0119151, 450.933, 424.075, 21.5341, 21.1663, 0.0351456, 24.7789, 0.184256, 0.148569, 0.0315806
 285.01,-0.128685,-0.0184852, 456.668, 431.838, 21.5481, 21.1737, 0.0351073, 24.7328, 0.184256, 0.102402, 0.029851
 286.51,-0.170612,-0.024508, 465.045, 442.431, 21.5622, 21.1812, 0.035072, 24.6901, 0.184256, 0.0597148, 0.0267924
 288.01,-0.20507,-0.0294578, 478.763, 458.834, 21.5765, 21.1888, 0.0350421, 24.654, 0.184256, 0.0236729, 0.0204987
 289.51,-0.222835,-0.0320096, 504.384, 488.409, 21.591, 21.1965, 0.0350246, 24.6328, 0.184256, 0.0024591, 0.00654174
 291.01,-0.223954,-0.0321704, 538.161, 524.969, 21.6056, 21.2044, 0.0350226, 24.6304, 0.184256, 6.14174e-07, 6.46668e-06
 292.51,-0.223954,-0.0321704, 560.17, 548.503, 21.6204, 21.2124, 0.0350225, 24.6304, 0.184256, 4.21651e-17, 6.79461e-16
 294.01,-0.223954,-0.0321704, 574.435, 563.916, 21.6353, 21.2205, 0.0350225, 24.6304, 0.184256, 2.81178e-19, 1.37503e-34
 295.51,-0.223954,-0.0321704, 584.306, 574.682, 21.6504, 21.2287, 0.0350225, 24.6304, 0.184256, 2.81178e-19, 3.95703e-34
 297.01,-0.223954,-0.0321704, 591.424, 582.502, 21.6657, 21.2371, 0.0350225, 24.6304, 0.184256, 2.81178e-19, 8.37506e-34
 298.51,-0.223954,-0.0321704, 596.781, 588.424, 21.6812, 21.2456, 0.0350225, 24.6304, 0.184256, 2.81178e-19, 1.46278e-33
 300.01,-0.223954,-0.0321704, 600.956, 593.063, 21.6968, 21.2543, 0.0350225, 24.6304, 0.184256, 2.81178e-19, 2.25016e-33
 301.51,-0.223954,-0.0321704, 604.301, 596.794, 21.7125, 21.2631, 0.0350225, 24.6304, 0.184256, 2.81178e-19, 3.16968e-33
 303.01,-0.223954,-0.0321704, 607.046, 599.865, 21.7285, 21.272, 0.0350225, 24.6304, 0.184256, 2.81178e-19, 4.19163e-33
 304.51,-0.223954,-0.0321704, 609.344, 602.445, 21.7446, 21.281, 0.0350225, 24.6304, 0.184256, 2.81178e-19, 5.29096e-33
 306.01,-0.223954,-0.0321704, 611.303, 604.648, 21.7608, 21.2902, 0.0350225, 24.6304, 0.184256, 2.81178e-19, 6.44747e-33
 307.51,-0.223954,-0.0321704, 612.993, 606.553, 21.7772, 21.2995, 0.0350225, 24.6304, 0.184256, 2.81178e-19, 7.64272e-33
 309.01,-0.223954,-0.0321704, 614.467, 608.216, 21.7938, 21.309, 0.0350225, 24.6304, 0.184256, 2.81178e-19, 8.85987e-33
 310.51,-0.223954,-0.0321704, 615.768, 609.687, 21.8105, 21.3185, 0.0350225, 24.6304, 0.184256, 2.81178e-19, 1.00912e-32
 312.01,-0.223954,-0.0321704, 616.929, 611.003, 21.8274, 21.3283, 0.0350225, 24.6304, 0.184256, 2.81178e-19, 1.13314e-32
 313.51,-0.223954,-0.0321704, 617.974, 612.188, 21.8445, 21.3381, 0.0350225, 24.6304, 0.184256, 2.81178e-19, 1.25745e-32
 315.01,-0.223954,-0.0321704, 618.924, 613.265, 21.8617, 21.3481, 0.0350225, 24.6304, 0.184256, 2.81178e-19, 1.38191e-32
 316.51,-0.223954,-0.0321704, 619.789, 614.249, 21.8791, 21.3582, 0.0350225, 24.6304, 0.184256, 2.81178e-19, 1.50594e-32
 318.01,-0.223954,-0.0321704, 620.587, 615.156, 21.8966, 21.3685, 0.0350225, 24.6304, 0.184256, 2.81178e-19, 1.62977e-32
 319.51,-0.223954,-0.0321704, 621.322, 615.992, 21.9143, 21.3789, 0.0350225, 24.6304, 0.184256, 2.81178e-19, 1.7527e-32
 321.01,-0.223954,-0.0321704, 622.003, 616.767, 21.9322, 21.3894, 0.0350225, 24.6304, 0.184256, 2.81178e-19, 1.87473e-32
 322.51,-0.223954,-0.0321704, 622.637, 617.49, 21.9502, 21.4001, 0.0350225, 24.6304, 0.184256, 2.81178e-19, 1.99588e-32
 324.01,-0.223954,-0.0321704, 623.231, 618.167, 21.9683, 21.4109, 0.0350225, 24.6304, 0.184256, 2.81178e-19, 2.11613e-32
 325.51,-0.223954,-0.0321704, 623.788, 618.803, 21.9867, 21.4219, 0.0350225, 24.6304, 0.184256, 2.81178e-19, 2.2355e-32
 327.01,-0.223954,-0.0321704, 624.312, 619.401, 22.0051, 21.433, 0.0350225, 24.6304, 0.184256, 2.81178e-19, 2.35382e-32
 328.51,-0.223954,-0.0321704, 624.804, 619.964, 22.0238, 21.4442, 0.0350225, 24.6304, 0.184256, 2.81178e-19, 2.47052e-32
 330.01,-0.223954,-0.0321704, 625.27, 620.495, 22.0426, 21.4556, 0.0350225, 24.6304, 0.184256, 2.81178e-19, 2.58597e-32
 331.51,-0.223954,-0.0321704, 625.711, 620.999, 22.0615, 21.4671, 0.0350225, 24.6304, 0.184256, 2.81178e-19, 2.70031e-32
 333.01,-0.223954,-0.0321704, 626.131, 621.48, 22.0806, 21.4787, 0.0350225, 24.6304, 0.184256, 2.81178e-19, 2.81395e-32
 334.51,-0.223954,-0.0321704, 626.526, 621.931, 22.0999, 21.4905, 0.0350225, 24.6304, 0.184256, 2.81178e-19, 2.9249e-32
 336.01,-0.223954,-0.0321704, 626.904, 622.363, 22.1193, 21.5024, 0.0350225, 24.6304, 0.184256, 2.81178e-19, 3.03512e-32
 337.51,-0.223954,-0.0321704, 627.267, 622.779, 22.1389, 21.5145, 0.0350225, 24.6304, 0.184256, 2.81178e-19, 3.14479e-32
 339.01,-0.223954,-0.0321704, 627.61, 623.171, 22.1587, 21.5267, 0.0350225, 24.6304, 0.184256, 2.81178e-19, 3.25196e-32
 340.51,-0.223954,-0.0321704, 627.943, 623.553, 22.1786, 21.539, 0.0350225, 24.6304, 0.184256, 2.81178e-19, 3.35977e-32
 342.01,-0.223954,-0.0321704, 628.257, 623.913, 22.1986, 21.5515, 0.0350225, 24.6304, 0.184256, 2.81178e-19, 3.46439e-32
 343.51,-0.223954,-0.0321704, 628.566, 624.266, 22.2188, 21.5641, 0.0350225, 24.6304, 0.184256, 2.81178e-19, 3.57019e-32
 345.01,-0.223954,-0.0321704, 628.856, 624.599, 22.2392, 21.5768, 0.0350225, 24.6304, 0.184256, 2.81178e-19, 3.67267e-32
 346.51,-0.223954,-0.0321704, 629.141, 624.927, 22.2597, 21.5897, 0.0350225, 24.6304, 0.184256, 2.81178e-19, 3.77634e-32
 348.01,-0.223954,-0.0321704, 629.41, 625.234, 22.2804, 21.6028, 0.0350225, 24.6304, 0.184256, 2.81178e-19, 3.87629e-32
 349.51,-0.223954,-0.0321704, 629.675, 625.538, 22.3013, 21.6159, 0.0350225, 24.6304, 0.184256, 2.81178e-19, 3.97776e-32
 351.01,-0.223954,-0.0321704, 629.927, 625.826, 22.3223, 21.6293, 0.0350225, 24.6304, 0.184256, 2.81178e-19, 4.0764e-32
 352.51,-0.223954,-0.0321704, 630.173, 626.109, 22.3434, 21.6427, 0.0350225, 24.6304, 0.184256, 2.81178e-19, 4.17507e-32
 354.01,-0.223954,-0.0321704, 630.412, 626.382, 22.3647, 21.6563, 0.0350225, 24.6304, 0.184256, 2.81178e-19, 4.27324e-32
 355.51,-0.223954,-0.0321704, 630.639, 626.644, 22.3862, 21.67, 0.0350225, 24.6304, 0.184256, 2.81178e-19, 4.36876e-32
 357.01,-0.223954,-0.0321704, 630.864, 626.902, 22.4079, 21.6839, 0.0350225, 24.6304, 0.184256, 2.81178e-19, 4.46509e-32
 358.51,-0.223954,-0.0321704, 631.079, 627.148, 22.4297, 21.698, 0.0350225, 24.6304, 0.184256, 2.81178e-19, 4.55925e-32
 360.01,-0.223954,-0.0321704, 631.288, 627.389, 22.4516, 21.7121, 0.0350225, 24.6304, 0.184256, 2.81178e-19, 4.65282e-32
 361.51,-0.223954,-0.0321704, 631.495, 627.626, 22.4738, 21.7264, 0.0350225, 24.6304, 0.184256, 2.81178e-19, 4.74698e-32
 363.01,-0.223954,-0.0321704, 631.69, 627.85, 22.4961, 21.7409, 0.0350225, 24.6304, 0.184256, 2.81178e-19, 4.83767e-32
 364.51,-0.223954,-0.0321704, 631.883, 628.071, 22.5186, 21.7555, 0.0350225, 24.6304, 0.184256, 2.81178e-19, 4.92897e-32
 366.01,-0.223954,-0.0321704, 632.073, 628.29, 22.5412, 21.7702, 0.0350225, 24.6304, 0.184256, 2.81178e-19, 5.02064e-32
 367.51,-0.223954,-0.0321704, 632.253, 628.496, 22.564, 21.7851, 0.0350225, 24.6304, 0.184256, 2.81178e-19, 5.10905e-32
 369.01,-0.223954,-0.0321704, 632.43, 628.7, 22.587, 21.8001, 0.0350225, 24.6304, 0.184256, 2.81178e-19, 5.19725e-32
 370.51,-0.223954,-0.0321704, 632.604, 628.9, 22.6102, 21.8153, 0.0350225, 24.6304, 0.184256, 2.81178e-19, 5.28588e-32
 372.01,-0.223954,-0.0321704, 632.774, 629.096, 22.6335, 21.8306, 0.0350225, 24.6304, 0.184256, 2.81178e-19, 5.37351e-32
 373.51,-0.223954,-0.0321704, 632.934, 629.279, 22.6571, 21.846, 0.0350225, 24.6304, 0.184256, 2.81178e-19, 5.45743e-32
 375.01,-0.223954,-0.0321704, 633.095, 629.464, 22.6808, 21.8616, 0.0350225, 24.6304, 0.184256, 2.81178e-19, 5.54266e-32
 376.51,-0.223954,-0.0321704, 633.254, 629.647, 22.7047, 21.8774, 0.0350225, 24.6304, 0.184256, 2.81178e-19, 5.62865e-32
 378.01,-0.223954,-0.0321704, 633.406, 629.821, 22.7288, 21.8933, 0.0350225, 24.6304, 0.184256, 2.81178e-19, 5.71197e-32
 379.51,-0.223954,-0.0321704, 633.552, 629.99, 22.7531, 21.9093, 0.0350225, 24.6304, 0.184256, 2.81178e-19, 5.7931e-32
 381.01,-0.223954,-0.0321704, 633.699, 630.159, 22.7775, 21.9255, 0.0350225, 24.6304, 0.184256, 2.81178e-19, 5.876e-32
 382.51,-0.223954,-0.0321704, 633.843, 630.324, 22.8022, 21.9418, 0.0350225, 24.6304, 0.184256, 2.81178e-19, 5.95817e-32
 384.01,-0.223954,-0.0321704, 633.985, 630.487, 22.8271, 21.9583, 0.0350225, 24.6304, 0.184256, 2.81178e-19, 6.04063e-32
 385.51,-0.223954,-0.0321704, 634.116, 630.638, 22.8521, 21.975, 0.0350225, 24.6304, 0.184256, 2.81178e-19, 6.11737e-32
 387.01,-0.223954,-0.0321704, 634.251, 630.794, 22.8774, 21.9918, 0.0350225, 24.6304, 0.184256, 2.81178e-19, 6.19759e-32
 388.51,-0.223954,-0.0321704, 634.384, 630.947, 22.9029, 22.0087, 0.0350225, 24.6304, 0.184256, 2.81178e-19, 6.27794e-32
 390.01,-0.223954,-0.0321704, 634.513, 631.095, 22.9286, 22.0258, 0.0350225, 24.6304, 0.184256, 2.81178e-19, 6.35637e-32
 391.51,-0.223954,-0.0321704, 634.637, 631.237, 22.9545, 22.0431, 0.0350225, 24.6304, 0.184256, 2.81178e-19, 6.43259e-32
 393.01,-0.223954,-0.0321704, 634.76, 631.379, 22.9806, 22.0605, 0.0350225, 24.6304, 0.184256, 2.81178e-19, 6.50945e-32
 394.51,-0.223954,-0.0321704, 634.88, 631.518, 23.0069, 22.078, 0.0350225, 24.6304, 0.184256, 2.81178e-19, 6.58564e-32
 396.01,-0.223954,-0.0321704, 635.002, 631.658, 23.0335, 22.0958, 0.0350225, 24.6304, 0.184256, 2.81178e-19, 6.66302e-32
 397.51,-0.223954,-0.0321704, 635.12, 631.794, 23.0602, 22.1136, 0.0350225, 24.6304, 0.184256, 2.81178e-19, 6.73956e-32
 399.01,-0.223954,-0.0321704, 635.231, 631.921, 23.0872, 22.1317, 0.0350225, 24.6304, 0.184256, 2.81178e-19, 6.81164e-32
 400.51,-0.223954,-0.0321704, 635.342, 632.049, 23.1145, 22.1499, 0.0350225, 24.6304, 0.184256, 2.81178e-19, 6.885e-32
 402.01,-0.223954,-0.0321704, 635.455, 632.18, 23.1419, 22.1682, 0.0350225, 24.6304, 0.184256, 2.81178e-19, 6.96029e-32
 403.51,-0.223954,-0.0321704, 635.563, 632.304, 23.1696, 22.1868, 0.0350225, 24.6304, 0.184256, 2.81178e-19, 7.03317e-32
 405.01,-0.223954,-0.0321704, 635.671, 632.428, 23.1975, 22.2054, 0.0350225, 24.6304, 0.184256, 2.81178e-19, 7.10648e-32
 406.51,-0.223954,-0.0321704, 635.778, 632.551, 23.2257, 22.2243, 0.0350225, 24.6304, 0.184256, 2.81178e-19, 7.18e-32
 408.01,-0.223954,-0.0321704, 635.876, 632.664, 23.2541, 22.2433, 0.0350225, 24.6304, 0.184256, 2.81178e-19, 7.24808e-32
 409.51,-0.223954,-0.0321704, 635.977, 632.78, 23.2827, 22.2625, 0.0350225, 24.6304, 0.184256, 2.81178e-19, 7.3187e-32
 411.01,-0.223954,-0.0321704, 636.078, 632.897, 23.3116, 22.2819, 0.0350225, 24.6304, 0.184256, 2.81178e-19, 7.3903e-32
 412.51,-0.223954,-0.0321704, 636.178, 633.012, 23.3407, 22.3014, 0.0350225, 24.6304, 0.184256, 2.81178e-19, 7.46173e-32
 414.01,-0.223954,-0.0321704, 636.275, 633.124, 23.3701, 22.3211, 0.0350225, 24.6304, 0.184256, 2.81178e-19, 7.53168e-32
 415.51,-0.223954,-0.0321704, 636.37, 633.233, 23.3998, 22.341, 0.0350225, 24.6304, 0.184256, 2.81178e-19, 7.60065e-32
 417.01,-0.223954,-0.0321704, 636.46, 633.336, 23.4296, 22.361, 0.0350225, 24.6304, 0.184256, 2.81178e-19, 7.66637e-32
 418.51,-0.223954,-0.0321704, 636.553, 633.444, 23.4598, 22.3813, 0.0350225, 24.6304, 0.184256, 2.81178e-19, 7.73559e-32
 420.01,-0.223954,-0.0321704, 636.643, 633.548, 23.4902, 22.4017, 0.0350225, 24.6304, 0.184256, 2.81178e-19, 7.80259e-32
 421.51,-0.223954,-0.0321704, 636.732, 633.651, 23.5208, 22.4222, 0.0350225, 24.6304, 0.184256, 2.81178e-19, 7.87007e-32
 423.01,-0.223954,-0.0321704, 636.822, 633.755, 23.5517, 22.443, 0.0350225, 24.6304, 0.184256, 2.81178e-19, 7.93827e-32
 424.51,-0.223954,-0.0321704, 636.91, 633.855, 23.5829, 22.4639, 0.0350225, 24.6304, 0.184256, 2.81178e-19, 8.0053e-32
 426.01,-0.223954,-0.0321704, 636.993, 633.95, 23.6143, 22.4851, 0.0350225, 24.6304, 0.184256, 2.81178e-19, 8.06904e-32
 427.51,-0.223954,-0.0321704, 637.073, 634.043, 23.646, 22.5064, 0.0350225, 24.6304, 0.184256, 2.81178e-19, 8.13176e-32
 429.01,-0.223954,-0.0321704, 637.156, 634.139, 23.6779, 22.5279, 0.0350225, 24.6304, 0.184256, 2.81178e-19, 8.19649e-32
 430.51,-0.223954,-0.0321704, 637.239, 634.235, 23.7101, 22.5496, 0.0350225, 24.6304, 0.184256, 2.81178e-19, 8.26222e-32
 432.01,-0.223954,-0.0321704, 637.321, 634.329, 23.7426, 22.5714, 0.0350225, 24.6304, 0.184256, 2.81178e-19, 8.32749e-32
 433.51,-0.223954,-0.0321704, 637.399, 634.419, 23.7754, 22.5935, 0.0350225, 24.6304, 0.184256, 2.81178e-19, 8.38985e-32
 435.01,-0.223954,-0.0321704, 637.477, 634.509, 23.8084, 22.6157, 0.0350225, 24.6304, 0.184256, 2.81178e-19, 8.45329e-32
 436.51,-0.223954,-0.0321704, 637.556, 634.6, 23.8417, 22.6382, 0.0350225, 24.6304, 0.184256, 2.81178e-19, 8.51718e-32
 438.01,-0.223954,-0.0321704, 637.628, 634.683, 23.8753, 22.6608, 0.0350225, 24.6304, 0.184256, 2.81178e-19, 8.57659e-32
 439.51,-0.223954,-0.0321704, 637.702, 634.768, 23.9091, 22.6837, 0.0350225, 24.6304, 0.184256, 2.81178e-19, 8.63744e-32
 441.01,-0.223954,-0.0321704, 637.776, 634.853, 23.9432, 22.7067, 0.0350225, 24.6304, 0.184256, 2.81178e-19, 8.69838e-32
 442.51,-0.223954,-0.0321704, 637.85, 634.939, 23.9776, 22.7299, 0.0350225, 24.6304, 0.184256, 2.81178e-19, 8.76075e-32
 444.01,-0.223954,-0.0321704, 637.923, 635.023, 24.0122, 22.7533, 0.0350225, 24.6304, 0.184256, 2.81178e-19, 8.82205e-32
 445.51,-0.223954,-0.0321704, 637.995, 635.107, 24.0471, 22.777, 0.0350225, 24.6304, 0.184256, 2.81178e-19, 8.88348e-32
 447.01,-0.223954,-0.0321704, 638.067, 635.189, 24.0823, 22.8008, 0.0350225, 24.6304, 0.184256, 2.81178e-19, 8.94444e-32
 448.51,-0.223954,-0.0321704, 638.135, 635.268, 24.1178, 22.8248, 0.0350225, 24.6304, 0.184256, 2.81178e-19, 9.00328e-32
 450.01,-0.223954,-0.0321704, 638.2, 635.342, 24.1535, 22.849, 0.0350225, 24.6304, 0.184256, 2.81178e-19, 9.0589e-32
 451.51,-0.223954,-0.0321704, 638.267, 635.419, 24.1896, 22.8735, 0.0350225, 24.6304, 0.184256, 2.81178e-19, 9.11738e-32
 453.01,-0.223954,-0.0321704, 638.335, 635.498, 24.2258, 22.8981, 0.0350225, 24.6304, 0.184256, 2.81178e-19, 9.17712e-32
 454.51,-0.223954,-0.0321704, 638.403, 635.576, 24.2624, 22.923, 0.0350225, 24.6304, 0.184256, 2.81178e-19, 9.23685e-32
 456.01,-0.223954,-0.0321704, 638.466, 635.65, 24.2993, 22.948, 0.0350225, 24.6304, 0.184256, 2.81178e-19, 9.29341e-32
 457.51,-0.223954,-0.0321704, 638.531, 635.724, 24.3364, 22.9733, 0.0350225, 24.6304, 0.184256, 2.81178e-19, 9.35084e-32
 459.01,-0.223954,-0.0321704, 638.596, 635.799, 24.3738, 22.9988, 0.0350225, 24.6304, 0.184256, 2.81178e-19, 9.40932e-32
 460.51,-0.223954,-0.0321704, 638.66, 635.874, 24.4115, 23.0245, 0.0350225, 24.6304, 0.184256, 2.81178e-19, 9.46758e-32
 462.01,-0.223954,-0.0321704, 638.723, 635.946, 24.4494, 23.0504, 0.0350225, 24.6304, 0.184256, 2.81178e-19, 9.52454e-32
 463.51,-0.223954,-0.0321704, 638.782, 636.014, 24.4876, 23.0765, 0.0350225, 24.6304, 0.184256, 2.81178e-19, 9.57861e-32
 465.01,-0.223954,-0.0321704, 638.84, 636.081, 24.5261, 23.1028, 0.0350225, 24.6304, 0.184256, 2.81178e-19, 9.63164e-32
 466.51,-0.223954,-0.0321704, 638.9, 636.15, 24.5649, 23.1293, 0.0350225, 24.6304, 0.184256, 2.81178e-19, 9.68749e-32
 468.01,-0.223954,-0.0321704, 638.96, 636.219, 24.6039, 23.1561, 0.0350225, 24.6304, 0.184256, 2.81178e-19, 9.74287e-32
 469.51,-0.223954,-0.0321704, 639.02, 636.289, 24.6433, 23.1831, 0.0350225, 24.6304, 0.184256, 2.81178e-19, 9.79894e-32
 471.01,-0.223954,-0.0321704, 639.08, 636.358, 24.6829, 23.2103, 0.0350225, 24.6304, 0.184256, 2.81178e-19, 9.85521e-32
 472.51,-0.223954,-0.0321704, 639.139, 636.426, 24.7227, 23.2377, 0.0350225, 24.6304, 0.184256, 2.81178e-19, 9.91095e-32
 474.01,-0.223954,-0.0321704, 639.195, 636.49, 24.7629, 23.2653, 0.0350225, 24.6304, 0.184256, 2.81178e-19, 9.9638e-32
 475.51,-0.223954,-0.0321704, 639.25, 636.554, 24.8033, 23.2932, 0.0350225, 24.6304, 0.184256, 2.81178e-19, 1.00171e-31
 477.01,-0.223954,-0.0321704, 639.307, 636.619, 24.8439, 23.3212, 0.0350225, 24.6304, 0.184256, 2.81178e-19, 1.0071e-31
 478.51,-0.223954,-0.0321704, 639.362, 636.682, 24.8849, 23.3495, 0.0350225, 24.6304, 0.184256, 2.81178e-19, 1.01244e-31
 480.01,-0.223954,-0.0321704, 639.414, 636.743, 24.9261, 23.3781, 0.0350225, 24.6304, 0.184256, 2.81178e-19, 1.0175e-31
 481.51,-0.223954,-0.0321704, 639.468, 636.806, 24.9676, 23.4068, 0.0350225, 24.6304, 0.184256, 2.81178e-19, 1.02278e-31
 483.01,-0.223954,-0.0321704, 639.522, 636.867, 25.0094, 23.4358, 0.0350225, 24.6304, 0.184256, 2.81178e-19, 1.02801e-31
 484.51,-0.223954,-0.0321704, 639.573, 636.927, 25.0514, 23.465, 0.0350225, 24.6304, 0.184256, 2.81178e-19, 1.0331e-31
 486.01,-0.223954,-0.0321704, 639.626, 636.988, 25.0937, 23.4944, 0.0350225, 24.6304, 0.184256, 2.81178e-19, 1.03836e-31
 487.51,-0.223954,-0.0321704, 639.68, 637.05, 25.1363, 23.524, 0.0350225, 24.6304, 0.184256, 2.81178e-19, 1.04366e-31
 489.01,-0.223954,-0.0321704, 639.731, 637.109, 25.1791, 23.5539, 0.0350225, 24.6304, 0.184256, 2.81178e-19, 1.0488e-31
 490.51,-0.223954,-0.0321704, 639.782, 637.168, 25.2222, 23.584, 0.0350225, 24.6304, 0.184256, 2.81178e-19, 1.05393e-31
 492.01,-0.223954,-0.0321704, 639.834, 637.228, 25.2656, 23.6143, 0.0350225, 24.6304, 0.184256, 2.81178e-19, 1.05912e-31
 493.51,-0.223954,-0.0321704, 639.885, 637.286, 25.3092, 23.6448, 0.0350225, 24.6304, 0.184256, 2.81178e-19, 1.06428e-31
 495.01,-0.223954,-0.0321704, 639.933, 637.341, 25.3531, 23.6756, 0.0350225, 24.6304, 0.184256, 2.81178e-19, 1.06915e-31
 496.51,-0.223954,-0.0321704, 639.977, 637.392, 25.3973, 23.7066, 0.0350225, 24.6304, 0.184256, 2.81178e-19, 1.07368e-31
 498.01,-0.223954,-0.0321704, 640.024, 637.447, 25.4417, 23.7378, 0.0350225, 24.6304, 0.184256, 2.81178e-19, 1.0785e-31
 499.51,-0.223954,-0.0321704, 640.072, 637.503, 25.4864, 23.7693, 0.0350225, 24.6304, 0.184256, 2.81178e-19, 1.0835e-31
 500,-0.223954,-0.0321704, 640.088, 637.521, 25.5012, 23.7797, 0.0350225, 24.6304, 0.184256, 2.81178e-19, 1.08515e-31