File: PMMA/Calibration_Results/NIST_FSRI/All_Props/BUW_FZJ_A[NIST_FSRI]_Gasification_q50_R3_Mass.csv
s,kg/m2,,C,C,C,C,m,kg/m2,kg/m2,kg/m2,kg/m2/s
Time,"SD","MF","TW1","TSB1","TAL1","TB1","DX1","SD1","SD_11","SD_12","BR1"
 0.0000000E+000, 6.96116, 0.999951, 20.9, 20.9, 20.9, 20.9, 0.041644, 31.8155, 0.184234, 7.18514, 0.0000000E+000
 1.5, 6.96116, 0.999951, 100.977, 20.9, 20.9, 20.9, 0.041644, 31.8155, 0.184234, 7.18514, 4.22987e-07
 3.01, 6.96116, 0.999951, 137.367, 20.9, 20.9, 20.9, 0.041644, 31.8155, 0.184232, 7.18514, 2.7985e-06
 4.51, 6.96115, 0.999949, 163.364, 20.9, 20.9, 20.9, 0.041644, 31.8155, 0.184223, 7.18514, 9.76843e-06
 6.01, 6.96112, 0.999945, 184.362, 20.9007, 20.9, 20.9, 0.041644, 31.8155, 0.184199, 7.18514, 2.45366e-05
 7.51, 6.96106, 0.999937, 202.202, 20.9066, 20.9, 20.9, 0.0416439, 31.8154, 0.184144, 7.18514, 5.05628e-05
 9.01, 6.96094, 0.99992, 217.802, 20.931, 20.9, 20.9, 0.0416438, 31.8153, 0.184039, 7.18514, 9.11936e-05
 10.51, 6.96075, 0.999892, 231.698, 20.9965, 20.9, 20.9, 0.0416437, 31.8151, 0.183861, 7.18514, 0.000149242
 12.01, 6.96045, 0.999849, 244.238, 21.1319, 20.9, 20.9, 0.0416434, 31.8148, 0.183581, 7.18514, 0.00022654
 13.51, 6.96002, 0.999787, 255.66, 21.3666, 20.9, 20.9, 0.0416431, 31.8144, 0.183171, 7.18514, 0.000323518
 15.01, 6.95942, 0.999701, 266.143, 21.7267, 20.9, 20.9, 0.0416426, 31.8139, 0.182604, 7.18513, 0.000438892
 16.51, 6.95863, 0.999588, 275.819, 22.2332, 20.9, 20.9, 0.041642, 31.8131, 0.181855, 7.18512, 0.00056958
 18, 6.95764, 0.999445, 284.767, 22.8987, 20.9, 20.9, 0.0416411, 31.8121, 0.180911, 7.18511, 0.00071045
 19.5, 6.95642, 0.999271, 293.105, 23.7341, 20.9, 20.9, 0.0416401, 31.811, 0.179762, 7.18509, 0.000856285
 21, 6.95499, 0.999065, 300.93, 24.7477, 20.9, 20.9, 0.0416389, 31.8096, 0.178408, 7.18505, 0.00100188
 22.5, 6.95335, 0.998829, 308.275, 25.9378, 20.9, 20.9, 0.0416375, 31.808, 0.176867, 7.18498, 0.0011419
 24, 6.9515, 0.998564, 315.188, 27.3019, 20.9, 20.9, 0.041636, 31.8061, 0.175161, 7.18487, 0.00127347
 25.5, 6.94946, 0.998271, 321.713, 28.8353, 20.9, 20.9, 0.0416343, 31.8041, 0.173321, 7.18471, 0.00139642
 27, 6.94725, 0.997953, 327.882, 30.5313, 20.9, 20.9, 0.0416324, 31.802, 0.17138, 7.18446, 0.00151352
 28.5, 6.94486, 0.99761, 333.722, 32.382, 20.9, 20.9, 0.0416303, 31.7996, 0.16937, 7.18411, 0.00163028
 30, 6.94229, 0.997241, 339.252, 34.3791, 20.9, 20.9, 0.0416281, 31.7971, 0.167321, 7.18362, 0.00175419
 31.5, 6.93952, 0.996843, 344.488, 36.5136, 20.9, 20.9, 0.0416257, 31.7943, 0.165255, 7.18295, 0.00189376
 33, 6.93652, 0.996412, 349.44, 38.7763, 20.9, 20.9, 0.0416232, 31.7914, 0.16319, 7.18206, 0.00205745
 34.5, 6.93324, 0.995941, 354.116, 41.1583, 20.9, 20.9, 0.0416203, 31.7881, 0.161137, 7.18088, 0.00225284
 36, 6.92963, 0.995422, 358.521, 43.6505, 20.9, 20.9, 0.0416172, 31.7846, 0.159102, 7.17936, 0.00248606
 37.5, 6.92563, 0.994847, 362.66, 46.2443, 20.9, 20.9, 0.0416137, 31.7807, 0.157089, 7.17744, 0.00276148
 39, 6.92117, 0.994206, 366.537, 48.9315, 20.9, 20.9, 0.0416098, 31.7763, 0.1551, 7.17505, 0.00308159
 40.5, 6.91618, 0.99349, 370.158, 51.704, 20.9, 20.9, 0.0416054, 31.7714, 0.153134, 7.17213, 0.00344707
 42, 6.9106, 0.992689, 373.527, 54.5541, 20.9, 20.9, 0.0416005, 31.7659, 0.151191, 7.16859, 0.00385684
 43.51, 6.90437, 0.991793, 376.662, 57.4845, 20.9, 20.9, 0.041595, 31.7598, 0.149263, 7.16438, 0.00430982
 45.01, 6.89741, 0.990794, 379.56, 60.4791, 20.9, 20.9, 0.0415888, 31.7529, 0.147356, 7.15943, 0.00480079
 46.51, 6.88969, 0.989685, 382.221, 63.5208, 20.9, 20.9, 0.0415819, 31.7453, 0.145476, 7.15371, 0.00532284
 48.01, 6.88116, 0.98846, 384.667, 66.6133, 20.9, 20.9, 0.0415743, 31.7369, 0.143613, 7.14718, 0.00587184
 49.51, 6.87179, 0.987113, 386.911, 69.7509, 20.9, 20.9, 0.0415659, 31.7277, 0.141768, 7.13978, 0.0064418
 51.01, 6.86154, 0.985641, 388.966, 72.9279, 20.9, 20.9, 0.0415567, 31.7176, 0.139939, 7.13151, 0.00702665
 52.51, 6.85041, 0.984042, 390.845, 76.139, 20.9, 20.9, 0.0415467, 31.7066, 0.138124, 7.12233, 0.00762077
 54.01, 6.83838, 0.982314, 392.562, 79.3795, 20.9, 20.9, 0.0415359, 31.6947, 0.136322, 7.11225, 0.008219
 55.51, 6.82545, 0.980457, 394.132, 82.6444, 20.9, 20.9, 0.0415242, 31.6819, 0.134531, 7.10125, 0.00881671
 57.01, 6.81163, 0.978472, 395.567, 85.9295, 20.9, 20.9, 0.0415117, 31.6682, 0.132751, 7.08936, 0.00941042
 58.51, 6.79693, 0.97636, 396.879, 89.2303, 20.9, 20.9, 0.0414984, 31.6537, 0.130979, 7.07657, 0.00999672
 60.01, 6.78136, 0.974123, 398.083, 92.5431, 20.9, 20.9, 0.0414844, 31.6382, 0.129214, 7.0629, 0.0105741
 61.51, 6.76493, 0.971763, 399.188, 95.864, 20.9, 20.9, 0.0414695, 31.6219, 0.127455, 7.04836, 0.0111403
 63.01, 6.74766, 0.969283, 400.204, 99.1897, 20.9, 20.9, 0.0414538, 31.6048, 0.125699, 7.03299, 0.0116942
 64.51, 6.72958, 0.966685, 401.141, 102.517, 20.9, 20.9, 0.0414374, 31.5869, 0.123945, 7.01679, 0.0122356
 66.01, 6.71069, 0.963972, 402.006, 105.842, 20.9, 20.9, 0.0414202, 31.5681, 0.122192, 6.99978, 0.0127641
 67.51, 6.69103, 0.961148, 402.809, 109.164, 20.9, 20.9, 0.0414023, 31.5486, 0.120437, 6.982, 0.0132796
 69.01, 6.67061, 0.958214, 403.552, 112.478, 20.9, 20.9, 0.0413838, 31.5283, 0.11868, 6.96345, 0.0137819
 70.51, 6.64944, 0.955174, 404.246, 115.784, 20.9, 20.9, 0.0413645, 31.5072, 0.116919, 6.94417, 0.0142729
 72.01, 6.62755, 0.952029, 404.897, 119.078, 20.9, 20.9, 0.0413446, 31.4854, 0.115152, 6.92416, 0.0147528
 73.5, 6.60495, 0.948783, 405.5, 122.337, 20.9, 20.9, 0.0413241, 31.4631, 0.113389, 6.90359, 0.0152177
 75, 6.58166, 0.945438, 406.07, 125.603, 20.9, 20.9, 0.0413029, 31.4399, 0.111605, 6.88219, 0.0156755
 76.5, 6.5577, 0.941995, 406.609, 128.852, 20.9, 20.9, 0.041281, 31.4161, 0.109811, 6.86013, 0.0161241
 78, 6.53307, 0.938457, 407.113, 132.084, 20.9, 20.9, 0.0412586, 31.3915, 0.108005, 6.83742, 0.0165619
 79.5, 6.50779, 0.934825, 407.597, 135.297, 20.9, 20.9, 0.0412355, 31.3664, 0.106185, 6.81407, 0.0169945
 81, 6.48187, 0.931102, 408.048, 138.49, 20.9, 20.9, 0.0412119, 31.3406, 0.104351, 6.79009, 0.0174152
 82.5, 6.45532, 0.927289, 408.485, 141.662, 20.9, 20.9, 0.0411876, 31.3141, 0.1025, 6.7655, 0.0178333
 84, 6.42816, 0.923387, 408.893, 144.813, 20.9, 20.9, 0.0411628, 31.2871, 0.100632, 6.7403, 0.0182406
 85.5, 6.40039, 0.919398, 409.29, 147.942, 20.9, 20.9, 0.0411375, 31.2594, 0.0987459, 6.71452, 0.0186451
 87, 6.37202, 0.915323, 409.665, 151.048, 20.9, 20.9, 0.0411116, 31.2311, 0.0968398, 6.68816, 0.0190417
 88.5, 6.34306, 0.911163, 410.026, 154.132, 20.9, 20.9, 0.0410851, 31.2023, 0.094913, 6.66123, 0.0194335
 90, 6.31352, 0.90692, 410.373, 157.192, 20.9, 20.9, 0.0410581, 31.1728, 0.0929646, 6.63373, 0.0198214
 91.5, 6.2834, 0.902594, 410.7, 160.228, 20.9001, 20.9, 0.0410306, 31.1428, 0.0909937, 6.60568, 0.0202007
 93, 6.25272, 0.898185, 411.026, 163.241, 20.9001, 20.9, 0.0410026, 31.1122, 0.0889997, 6.57708, 0.0205826
 94.5, 6.22147, 0.893696, 411.331, 166.23, 20.9001, 20.9, 0.040974, 31.081, 0.0869821, 6.54794, 0.0209549
 96, 6.18966, 0.889128, 411.628, 169.196, 20.9001, 20.9, 0.0409449, 31.0493, 0.0849403, 6.51827, 0.0213244
 97.5, 6.1573, 0.884479, 411.919, 172.138, 20.9001, 20.9, 0.0409154, 31.0171, 0.0828743, 6.48806, 0.0216935
 99, 6.12439, 0.879752, 412.195, 175.056, 20.9002, 20.9, 0.0408853, 30.9842, 0.0807839, 6.45734, 0.0220564
 100.5, 6.09095, 0.874948, 412.462, 177.951, 20.9002, 20.9, 0.0408547, 30.9509, 0.0786692, 6.4261, 0.0224138
 102, 6.05696, 0.870066, 412.728, 180.823, 20.9002, 20.9, 0.0408236, 30.917, 0.0765306, 6.39434, 0.0227745
 103.5, 6.02244, 0.865107, 412.979, 183.672, 20.9003, 20.9, 0.0407921, 30.8826, 0.0743686, 6.36207, 0.0231276
 105, 5.9874, 0.860073, 413.221, 186.498, 20.9003, 20.9, 0.04076, 30.8476, 0.072184, 6.3293, 0.0234748
 106.5, 5.95183, 0.854964, 413.467, 189.303, 20.9004, 20.9, 0.0407275, 30.8121, 0.0699779, 6.29602, 0.023828
 108, 5.91574, 0.849779, 413.698, 192.085, 20.9004, 20.9, 0.0406945, 30.7761, 0.0677515, 6.26225, 0.0241721
 109.5, 5.87914, 0.844522, 413.921, 194.846, 20.9005, 20.9001, 0.040661, 30.7396, 0.0655064, 6.22798, 0.0245117
 111, 5.84203, 0.839191, 414.146, 197.587, 20.9006, 20.9001, 0.0406271, 30.7026, 0.0632444, 6.19321, 0.0248526
 112.5, 5.80441, 0.833787, 414.361, 200.307, 20.9006, 20.9001, 0.0405926, 30.665, 0.0609677, 6.15795, 0.0251895
 114, 5.76629, 0.828311, 414.57, 203.006, 20.9007, 20.9001, 0.0405578, 30.627, 0.0586787, 6.1222, 0.0255226
 115.5, 5.72767, 0.822764, 414.771, 205.687, 20.9008, 20.9001, 0.0405224, 30.5885, 0.0563801, 6.08597, 0.0258493
 117, 5.68857, 0.817147, 414.976, 208.349, 20.901, 20.9001, 0.0404866, 30.5494, 0.0540749, 6.04925, 0.0261789
 118.5, 5.64897, 0.811459, 415.173, 210.992, 20.9011, 20.9001, 0.0404504, 30.5099, 0.0517665, 6.01204, 0.0265047
 120, 5.60889, 0.805701, 415.361, 213.618, 20.9012, 20.9002, 0.0404137, 30.4699, 0.0494586, 5.97435, 0.026823
 121.5, 5.56834, 0.799876, 415.544, 216.227, 20.9014, 20.9002, 0.0403766, 30.4295, 0.047155, 5.93618, 0.0271366
 123, 5.52731, 0.793983, 415.735, 218.819, 20.9016, 20.9002, 0.040339, 30.3885, 0.04486, 5.89753, 0.0274567
 124.5, 5.48581, 0.788022, 415.912, 221.395, 20.9018, 20.9002, 0.0403011, 30.3471, 0.0425781, 5.85839, 0.0277659
 126, 5.44385, 0.781994, 416.087, 223.956, 20.902, 20.9003, 0.0402626, 30.3052, 0.0403139, 5.81877, 0.0280733
 127.5, 5.40144, 0.775901, 416.256, 226.502, 20.9022, 20.9003, 0.0402238, 30.2629, 0.0380724, 5.77867, 0.0283746
 129, 5.35857, 0.769744, 416.428, 229.034, 20.9025, 20.9003, 0.0401845, 30.2201, 0.0358586, 5.7381, 0.0286768
 130.5, 5.31525, 0.763521, 416.597, 231.553, 20.9028, 20.9004, 0.0401449, 30.1768, 0.0336779, 5.69703, 0.028978
 132, 5.27149, 0.757235, 416.758, 234.058, 20.9031, 20.9004, 0.0401048, 30.1331, 0.0315356, 5.65549, 0.0292713
 133.5, 5.22729, 0.750886, 416.913, 236.55, 20.9034, 20.9005, 0.0400643, 30.089, 0.0294371, 5.61346, 0.0295593
 135, 5.18266, 0.744475, 417.069, 239.03, 20.9038, 20.9006, 0.0400234, 30.0445, 0.0273878, 5.57095, 0.0298461
 136.5, 5.13759, 0.738001, 417.232, 241.498, 20.9042, 20.9006, 0.0399821, 29.9995, 0.025393, 5.52795, 0.0301404
 138, 5.0921, 0.731466, 417.38, 243.954, 20.9046, 20.9007, 0.0399404, 29.954, 0.0234579, 5.48446, 0.0304213
 139.5, 5.04618, 0.72487, 417.53, 246.399, 20.905, 20.9008, 0.0398983, 29.9082, 0.0215876, 5.44049, 0.0307044
 141, 4.99985, 0.718214, 417.674, 248.833, 20.9055, 20.9009, 0.0398558, 29.8619, 0.0197868, 5.39602, 0.0309819
 142.5, 4.95309, 0.711498, 417.822, 251.256, 20.906, 20.901, 0.0398129, 29.8152, 0.0180601, 5.35106, 0.0312625
 144, 4.90591, 0.70472, 417.968, 253.667, 20.9066, 20.9011, 0.0397696, 29.7681, 0.0164113, 5.3056, 0.0315459
 145.5, 4.85831, 0.697883, 418.107, 256.067, 20.9072, 20.9012, 0.039726, 29.7206, 0.0148441, 5.25964, 0.0318232
 147, 4.8103, 0.690986, 418.243, 258.455, 20.9078, 20.9013, 0.0396819, 29.6727, 0.0133615, 5.21318, 0.0320994
 148.5, 4.76187, 0.684029, 418.377, 260.831, 20.9085, 20.9015, 0.0396375, 29.6243, 0.011966, 5.16621, 0.032376
 150, 4.71302, 0.677012, 418.521, 263.194, 20.9092, 20.9016, 0.0395926, 29.5755, 0.0106594, 5.11874, 0.0326648
 151.5, 4.66373, 0.669932, 418.653, 265.545, 20.91, 20.9018, 0.0395474, 29.5263, 0.00944267, 5.07074, 0.0329478
 153, 4.61403, 0.662792, 418.782, 267.882, 20.9108, 20.902, 0.0395018, 29.4767, 0.00831632, 5.02223, 0.0332322
 154.5, 4.56388, 0.655589, 418.912, 270.204, 20.9117, 20.9022, 0.0394557, 29.4266, 0.00727995, 4.9732, 0.0335219
 156, 4.51331, 0.648324, 419.036, 272.512, 20.9126, 20.9024, 0.0394093, 29.3761, 0.00633245, 4.92364, 0.0338105
 157.5, 4.46229, 0.640996, 419.169, 274.801, 20.9136, 20.9026, 0.0393624, 29.3252, 0.00547198, 4.87356, 0.0341124
 159, 4.41081, 0.633601, 419.297, 277.065, 20.9146, 20.9028, 0.0393152, 29.2738, 0.00469604, 4.82294, 0.0344195
 160.51, 4.35888, 0.62614, 419.419, 279.324, 20.9157, 20.9031, 0.0392671, 29.2215, 0.00399711, 4.77143, 0.0347269
 162.01, 4.30648, 0.618613, 419.537, 281.549, 20.9169, 20.9033, 0.039219, 29.1692, 0.00338061, 4.71972, 0.0350354
 163.51, 4.25361, 0.611019, 419.657, 283.753, 20.9181, 20.9036, 0.0391704, 29.1164, 0.00283731, 4.66747, 0.0353529
 165.01, 4.20025, 0.603354, 419.783, 285.936, 20.9194, 20.9039, 0.0391214, 29.0631, 0.00236246, 4.61467, 0.0356831
 166.51, 4.1464, 0.595618, 419.898, 288.098, 20.9207, 20.9043, 0.0390719, 29.0094, 0.00195094, 4.5613, 0.0360101
 168.01, 4.09205, 0.587811, 420.015, 290.236, 20.9221, 20.9046, 0.0390219, 28.9551, 0.00159745, 4.50739, 0.0363475
 169.51, 4.03719, 0.579931, 420.126, 292.351, 20.9236, 20.905, 0.0389715, 28.9003, 0.00129656, 4.45291, 0.0366832
 171.01, 3.98183, 0.571978, 420.233, 294.442, 20.9251, 20.9054, 0.0389206, 28.845, 0.00104285, 4.39788, 0.0370226
 172.51, 3.92595, 0.563951, 420.35, 296.508, 20.9267, 20.9058, 0.0388693, 28.7892, 0.000830995, 4.3423, 0.0373734
 174.01, 3.86953, 0.555847, 420.461, 298.548, 20.9284, 20.9062, 0.0388174, 28.7329, 0.000655846, 4.28614, 0.0377296
 175.51, 3.81258, 0.547667, 420.565, 300.558, 20.9302, 20.9067, 0.038765, 28.6761, 0.00051253, 4.22942, 0.0380814
 177.01, 3.75511, 0.539411, 420.666, 302.54, 20.932, 20.9072, 0.0387122, 28.6187, 0.000396499, 4.17215, 0.0384335
 178.51, 3.6971, 0.531078, 420.769, 304.494, 20.934, 20.9077, 0.0386589, 28.5607, 0.000303572, 4.11432, 0.0387907
 180.01, 3.63856, 0.522669, 420.867, 306.422, 20.936, 20.9083, 0.0386051, 28.5023, 0.00022997, 4.05594, 0.0391445
 181.51, 3.57948, 0.514183, 420.971, 308.322, 20.938, 20.9088, 0.0385507, 28.4433, 0.000172331, 3.99701, 0.0395039
 183.01, 3.51986, 0.505619, 421.072, 310.195, 20.9402, 20.9095, 0.0384959, 28.3838, 0.000127712, 3.93752, 0.0398649
 184.51, 3.45972, 0.496979, 421.163, 312.043, 20.9425, 20.9101, 0.0384406, 28.3237, 9.35772e-05, 3.87749, 0.0402127
 186.01, 3.39905, 0.488264, 421.253, 313.865, 20.9448, 20.9108, 0.0383848, 28.2631, 6.77759e-05, 3.81693, 0.0405593
 187.51, 3.33787, 0.479476, 421.343, 315.662, 20.9473, 20.9115, 0.0383286, 28.202, 4.85111e-05, 3.75585, 0.0409033
 189.01, 3.27617, 0.470613, 421.436, 317.435, 20.9498, 20.9122, 0.0382718, 28.1404, 3.43055e-05, 3.69425, 0.0412455
 190.51, 3.21397, 0.461677, 421.525, 319.185, 20.9525, 20.913, 0.0382146, 28.0783, 2.39627e-05, 3.63214, 0.041584
 192.01, 3.15126, 0.45267, 421.611, 320.912, 20.9552, 20.9138, 0.038157, 28.0157, 1.65292e-05, 3.56952, 0.0419138
 193.51, 3.08807, 0.443592, 421.694, 322.617, 20.958, 20.9147, 0.0380988, 27.9525, 1.12565e-05, 3.50641, 0.0422369
 195.01, 3.02439, 0.434446, 421.774, 324.302, 20.9609, 20.9156, 0.0380403, 27.8889, 7.56628e-06, 3.44281, 0.0425508
 196.51, 2.96027, 0.425234, 421.85, 325.966, 20.964, 20.9166, 0.0379813, 27.8249, 5.01855e-06, 3.37876, 0.0428541
 198.01, 2.89567, 0.415955, 421.942, 327.614, 20.9671, 20.9175, 0.0379219, 27.7604, 3.28377e-06, 3.31424, 0.043166
 199.51, 2.83063, 0.406612, 422.019, 329.247, 20.9703, 20.9186, 0.037862, 27.6954, 2.11908e-06, 3.24927, 0.0434594
 201.01, 2.76515, 0.397206, 422.096, 330.865, 20.9737, 20.9197, 0.0378018, 27.63, 1.34824e-06, 3.18386, 0.0437452
 202.51, 2.69925, 0.38774, 422.174, 332.473, 20.9771, 20.9208, 0.0377412, 27.5642, 8.45477e-07, 3.11803, 0.0440232
 204.01, 2.63295, 0.378216, 422.25, 334.072, 20.9807, 20.9219, 0.0376802, 27.4979, 5.22397e-07, 3.05179, 0.0442933
 205.51, 2.56625, 0.368635, 422.323, 335.662, 20.9843, 20.9232, 0.0376188, 27.4313, 3.17913e-07, 2.98516, 0.0445493
 207.01, 2.49917, 0.358998, 422.409, 337.249, 20.9881, 20.9244, 0.0375571, 27.3643, 1.90483e-07, 2.91814, 0.0448112
 208.51, 2.4317, 0.349307, 422.488, 338.832, 20.992, 20.9258, 0.0374951, 27.2968, 1.12323e-07, 2.85073, 0.0450618
 210.01, 2.36387, 0.339563, 422.563, 340.415, 20.996, 20.9271, 0.0374326, 27.2291, 6.51544e-08, 2.78295, 0.0452984
 211.51, 2.29569, 0.329769, 422.644, 342.001, 21.0002, 20.9286, 0.0373699, 27.1609, 3.716e-08, 2.71483, 0.045532
 213.01, 2.22716, 0.319926, 422.724, 343.59, 21.0044, 20.93, 0.0373069, 27.0925, 2.08275e-08, 2.64636, 0.0457559
 214.51, 2.15831, 0.310035, 422.806, 345.187, 21.0088, 20.9316, 0.0372435, 27.0237, 1.14652e-08, 2.57756, 0.0459739
 216.01, 2.08913, 0.300098, 422.899, 346.792, 21.0133, 20.9332, 0.0371799, 26.9546, 6.19515e-09, 2.50843, 0.0461926
 217.51, 2.01963, 0.290115, 422.989, 348.41, 21.0179, 20.9348, 0.0371159, 26.8851, 3.28362e-09, 2.43898, 0.0464015
 219.01, 1.94983, 0.280088, 423.078, 350.045, 21.0226, 20.9365, 0.0370517, 26.8153, 1.70597e-09, 2.36923, 0.0465998
 220.51, 1.87974, 0.270019, 423.177, 351.697, 21.0275, 20.9383, 0.0369872, 26.7453, 8.68092e-10, 2.29918, 0.0467965
 222.01, 1.80935, 0.259908, 423.277, 353.37, 21.0325, 20.9401, 0.0369224, 26.675, 4.32276e-10, 2.22884, 0.046986
 223.51, 1.73869, 0.249757, 423.388, 355.07, 21.0376, 20.942, 0.0368574, 26.6043, 2.10451e-10, 2.15822, 0.0471742
 225.01, 1.66774, 0.239566, 423.507, 356.796, 21.0428, 20.944, 0.0367921, 26.5334, 1.00067e-10, 2.08732, 0.0473621
 226.51, 1.59652, 0.229336, 423.626, 358.554, 21.0482, 20.946, 0.0367265, 26.4623, 4.6419e-11, 2.01614, 0.0475371
 228.01, 1.52504, 0.219068, 423.755, 360.349, 21.0537, 20.9481, 0.0366608, 26.3908, 2.09812e-11, 1.9447, 0.0477092
 229.51, 1.4533, 0.208763, 423.901, 362.182, 21.0594, 20.9503, 0.0365947, 26.3191, 9.2281e-12, 1.87301, 0.047883
 231.01, 1.38131, 0.198421, 424.056, 364.058, 21.0652, 20.9526, 0.0365285, 26.2472, 3.94372e-12, 1.80105, 0.0480513
 232.51, 1.30907, 0.188044, 424.226, 365.981, 21.0711, 20.9549, 0.036462, 26.175, 1.63496e-12, 1.72885, 0.0482175
 234.01, 1.23659, 0.177632, 424.405, 367.957, 21.0771, 20.9572, 0.0363953, 26.1025, 6.56358e-13, 1.65641, 0.0483729
 235.51, 1.16387, 0.167187, 424.612, 369.99, 21.0833, 20.9597, 0.0363284, 26.0298, 2.54658e-13, 1.58373, 0.0485311
 237.01, 1.09092, 0.156708, 424.834, 372.087, 21.0897, 20.9622, 0.0362612, 25.9569, 9.52816e-14, 1.51082, 0.0486818
 238.51, 1.01775, 0.146197, 425.08, 374.254, 21.0961, 20.9648, 0.0361939, 25.8838, 3.42956e-14, 1.43768, 0.0488258
 240.01, 0.944371, 0.135656, 425.36, 376.498, 21.1027, 20.9675, 0.0361263, 25.8105, 1.18434e-14, 1.36434, 0.0489682
 241.51, 0.870786, 0.125086, 425.671, 378.829, 21.1095, 20.9703, 0.0360586, 25.7369, 3.91205e-15, 1.29078, 0.0491019
 243.01, 0.797011, 0.114488, 426.018, 381.254, 21.1164, 20.9731, 0.0359907, 25.6632, 1.23191e-15, 1.21704, 0.0492231
 244.51, 0.723056, 0.103865, 426.418, 383.787, 21.1234, 20.9761, 0.0359226, 25.5892, 3.68531e-16, 1.14311, 0.04934
 246.01, 0.648943, 0.0932189, 426.873, 386.438, 21.1306, 20.9791, 0.0358544, 25.5151, 1.04424e-16, 1.06902, 0.0494424
 247.51, 0.574689, 0.0825525, 427.396, 389.226, 21.138, 20.9822, 0.035786, 25.4409, 2.80539e-17, 0.994788, 0.0495306
 249.01, 0.500324, 0.0718701, 428.001, 392.166, 21.1454, 20.9853, 0.0357176, 25.3666, 7.29035e-18, 0.920438, 0.0495978
 250.51, 0.425879, 0.0611764, 428.711, 395.282, 21.1531, 20.9886, 0.035649, 25.2921, 2.02006e-18, 0.846004, 0.0496423
 252.01, 0.351398, 0.0504774, 429.547, 398.601, 21.1609, 20.9919, 0.0355804, 25.2176, 7.86762e-19, 0.771526, 0.0496556
 253.51, 0.276916, 0.0397783, 430.559, 402.188, 21.1688, 20.9954, 0.0355119, 25.1432, 5.32271e-19, 0.697041, 0.0496482
 255.01, 0.202511, 0.0290902, 431.767, 406.06, 21.1769, 20.9989, 0.0354433, 25.0687, 4.89572e-19, 0.622618, 0.0495741
 256.51, 0.128292, 0.0184288, 433.24, 410.281, 21.1851, 21.0025, 0.035375, 24.9945, 4.59572e-19, 0.548361, 0.049423
 258.01, 0.0543941, 0.00781356, 435.071, 414.94, 21.1935, 21.0062, 0.0353068, 24.9205, 4.29409e-19, 0.474401, 0.0491735
 259.51,-0.0189935,-0.00272836, 437.388, 420.163, 21.202, 21.01, 0.0352392, 24.847, 3.99694e-19, 0.400917, 0.0487814
 261.01,-0.0915933,-0.0131571, 440.396, 426.146, 21.2107, 21.0139, 0.0351722, 24.7743, 3.70199e-19, 0.328169, 0.0481804
 262.51,-0.162979,-0.0234114, 444.43, 433.206, 21.2195, 21.0179, 0.0351062, 24.7027, 3.41213e-19, 0.256555, 0.0472484
 264.01,-0.232428,-0.0333877, 450.085, 441.908, 21.2285, 21.022, 0.035042, 24.6329, 3.13103e-19, 0.186735, 0.0457395
 265.51,-0.298566,-0.0428881, 458.579, 453.416, 21.2377, 21.0262, 0.0349804, 24.5661, 2.86114e-19, 0.119934, 0.0430815
 267.01,-0.358168,-0.0514498, 472.984, 470.794, 21.247, 21.0304, 0.0349243, 24.505, 2.61609e-19, 0.0589166, 0.0375082
 268.51,-0.401314,-0.0576476, 503.859, 503.513, 21.2565, 21.0348, 0.0348809, 24.458, 2.42764e-19, 0.0118541, 0.0222616
 270.01,-0.40821,-0.0586382, 559.402, 512.464, 21.2661, 21.0393, 0.03487, 24.4461, 2.37973e-19, 1.14159e-13, 2.88841e-13
 271.51,-0.40821,-0.0586382, 575.951, 537.538, 21.2759, 21.0439, 0.03487, 24.4461, 2.37973e-19, 2.66654e-16, 1.56716e-15
 273.01,-0.40821,-0.0586382, 584.565, 550.76, 21.2859, 21.0486, 0.03487, 24.4461, 2.37973e-19, 2.16264e-19, 0.0000000E+000
 274.51,-0.40821,-0.0586382, 590.276, 559.482, 21.296, 21.0534, 0.03487, 24.4461, 2.37973e-19, 2.16264e-19, 0.0000000E+000
 276.01,-0.40821,-0.0586382, 594.472, 565.868, 21.3062, 21.0582, 0.03487, 24.4461, 2.37973e-19, 2.16264e-19, 0.0000000E+000
 277.51,-0.40821,-0.0586382, 597.748, 570.836, 21.3167, 21.0632, 0.03487, 24.4461, 2.37973e-19, 2.16264e-19, 0.0000000E+000
 279.01,-0.40821,-0.0586382, 600.408, 574.862, 21.3273, 21.0683, 0.03487, 24.4461, 2.37973e-19, 2.16264e-19, 0.0000000E+000
 280.51,-0.40821,-0.0586382, 602.631, 578.22, 21.338, 21.0736, 0.03487, 24.4461, 2.37973e-19, 2.16264e-19, 0.0000000E+000
 282.01,-0.40821,-0.0586382, 604.53, 581.086, 21.3489, 21.0789, 0.03487, 24.4461, 2.37973e-19, 2.16264e-19, 0.0000000E+000
 283.51,-0.40821,-0.0586382, 606.185, 583.575, 21.36, 21.0843, 0.03487, 24.4461, 2.37973e-19, 2.16264e-19, 0.0000000E+000
 285.01,-0.40821,-0.0586382, 607.63, 585.752, 21.3712, 21.0898, 0.03487, 24.4461, 2.37973e-19, 2.16264e-19, 0.0000000E+000
 286.51,-0.40821,-0.0586382, 608.914, 587.68, 21.3827, 21.0955, 0.03487, 24.4461, 2.37973e-19, 2.16264e-19, 0.0000000E+000
 288.01,-0.40821,-0.0586382, 610.066, 589.414, 21.3942, 21.1013, 0.03487, 24.4461, 2.37973e-19, 2.16264e-19, 0.0000000E+000
 289.51,-0.40821,-0.0586382, 611.11, 590.986, 21.406, 21.1071, 0.03487, 24.4461, 2.37973e-19, 2.16264e-19, 0.0000000E+000
 291.01,-0.40821,-0.0586382, 612.071, 592.422, 21.4179, 21.1131, 0.03487, 24.4461, 2.37973e-19, 2.16264e-19, 0.0000000E+000
 292.51,-0.40821,-0.0586382, 612.954, 593.742, 21.4299, 21.1192, 0.03487, 24.4461, 2.37973e-19, 2.16264e-19, 0.0000000E+000
 294.01,-0.40821,-0.0586382, 613.76, 594.961, 21.4422, 21.1255, 0.03487, 24.4461, 2.37973e-19, 2.16264e-19, 0.0000000E+000
 295.51,-0.40821,-0.0586382, 614.513, 596.092, 21.4546, 21.1318, 0.03487, 24.4461, 2.37973e-19, 2.16264e-19, 0.0000000E+000
 297.01,-0.40821,-0.0586382, 615.217, 597.145, 21.4671, 21.1382, 0.03487, 24.4461, 2.37973e-19, 2.16264e-19, 0.0000000E+000
 298.51,-0.40821,-0.0586382, 615.875, 598.13, 21.4799, 21.1448, 0.03487, 24.4461, 2.37973e-19, 2.16264e-19, 0.0000000E+000
 300.01,-0.40821,-0.0586382, 616.493, 599.056, 21.4928, 21.1515, 0.03487, 24.4461, 2.37973e-19, 2.16264e-19, 0.0000000E+000
 301.51,-0.40821,-0.0586382, 617.077, 599.925, 21.5058, 21.1583, 0.03487, 24.4461, 2.37973e-19, 2.16264e-19, 0.0000000E+000
 303.01,-0.40821,-0.0586382, 617.635, 600.748, 21.5191, 21.1653, 0.03487, 24.4461, 2.37973e-19, 2.16264e-19, 0.0000000E+000
 304.51,-0.40821,-0.0586382, 618.154, 601.526, 21.5325, 21.1723, 0.03487, 24.4461, 2.37973e-19, 2.16264e-19, 0.0000000E+000
 306.01,-0.40821,-0.0586382, 618.641, 602.262, 21.5461, 21.1795, 0.03487, 24.4461, 2.37973e-19, 2.16264e-19, 0.0000000E+000
 307.51,-0.40821,-0.0586382, 619.105, 602.962, 21.5598, 21.1868, 0.03487, 24.4461, 2.37973e-19, 2.16264e-19, 0.0000000E+000
 309.01,-0.40821,-0.0586382, 619.563, 603.63, 21.5738, 21.1942, 0.03487, 24.4461, 2.37973e-19, 2.16264e-19, 0.0000000E+000
 310.51,-0.40821,-0.0586382, 619.982, 604.265, 21.5878, 21.2018, 0.03487, 24.4461, 2.37973e-19, 2.16264e-19, 0.0000000E+000
 312.01,-0.40821,-0.0586382, 620.389, 604.87, 21.6021, 21.2095, 0.03487, 24.4461, 2.37973e-19, 2.16264e-19, 0.0000000E+000
 313.51,-0.40821,-0.0586382, 620.777, 605.446, 21.6165, 21.2173, 0.03487, 24.4461, 2.37973e-19, 2.16264e-19, 0.0000000E+000
 315.01,-0.40821,-0.0586382, 621.14, 605.998, 21.6312, 21.2252, 0.03487, 24.4461, 2.37973e-19, 2.16264e-19, 0.0000000E+000
 316.51,-0.40821,-0.0586382, 621.505, 606.53, 21.6459, 21.2333, 0.03487, 24.4461, 2.37973e-19, 2.16264e-19, 0.0000000E+000
 318.01,-0.40821,-0.0586382, 621.839, 607.04, 21.6609, 21.2414, 0.03487, 24.4461, 2.37973e-19, 2.16264e-19, 0.0000000E+000
 319.51,-0.40821,-0.0586382, 622.179, 607.535, 21.676, 21.2498, 0.03487, 24.4461, 2.37973e-19, 2.16264e-19, 0.0000000E+000
 321.01,-0.40821,-0.0586382, 622.486, 608.005, 21.6913, 21.2582, 0.03487, 24.4461, 2.37973e-19, 2.16264e-19, 0.0000000E+000
 322.51,-0.40821,-0.0586382, 622.798, 608.46, 21.7068, 21.2668, 0.03487, 24.4461, 2.37973e-19, 2.16264e-19, 0.0000000E+000
 324.01,-0.40821,-0.0586382, 623.088, 608.9, 21.7224, 21.2755, 0.03487, 24.4461, 2.37973e-19, 2.16264e-19, 0.0000000E+000
 325.51,-0.40821,-0.0586382, 623.38, 609.33, 21.7383, 21.2843, 0.03487, 24.4461, 2.37973e-19, 2.16264e-19, 0.0000000E+000
 327.01,-0.40821,-0.0586382, 623.661, 609.739, 21.7543, 21.2933, 0.03487, 24.4461, 2.37973e-19, 2.16264e-19, 0.0000000E+000
 328.51,-0.40821,-0.0586382, 623.918, 610.135, 21.7705, 21.3024, 0.03487, 24.4461, 2.37973e-19, 2.16264e-19, 0.0000000E+000
 330.01,-0.40821,-0.0586382, 624.186, 610.527, 21.7868, 21.3117, 0.03487, 24.4461, 2.37973e-19, 2.16264e-19, 0.0000000E+000
 331.51,-0.40821,-0.0586382, 624.428, 610.897, 21.8034, 21.321, 0.03487, 24.4461, 2.37973e-19, 2.16264e-19, 0.0000000E+000
 333.01,-0.40821,-0.0586382, 624.675, 611.26, 21.8201, 21.3306, 0.03487, 24.4461, 2.37973e-19, 2.16264e-19, 0.0000000E+000
 334.51,-0.40821,-0.0586382, 624.919, 611.616, 21.837, 21.3402, 0.03487, 24.4461, 2.37973e-19, 2.16264e-19, 0.0000000E+000
 336.01,-0.40821,-0.0586382, 625.137, 611.954, 21.8542, 21.35, 0.03487, 24.4461, 2.37973e-19, 2.16264e-19, 0.0000000E+000
 337.51,-0.40821,-0.0586382, 625.369, 612.293, 21.8714, 21.3599, 0.03487, 24.4461, 2.37973e-19, 2.16264e-19, 0.0000000E+000
 339.01,-0.40821,-0.0586382, 625.588, 612.613, 21.8889, 21.37, 0.03487, 24.4461, 2.37973e-19, 2.16264e-19, 0.0000000E+000
 340.51,-0.40821,-0.0586382, 625.794, 612.931, 21.9066, 21.3802, 0.03487, 24.4461, 2.37973e-19, 2.16264e-19, 0.0000000E+000
 342.01,-0.40821,-0.0586382, 626.002, 613.236, 21.9245, 21.3906, 0.03487, 24.4461, 2.37973e-19, 2.16264e-19, 0.0000000E+000
 343.51,-0.40821,-0.0586382, 626.21, 613.539, 21.9425, 21.401, 0.03487, 24.4461, 2.37973e-19, 2.16264e-19, 0.0000000E+000
 345.01,-0.40821,-0.0586382, 626.404, 613.827, 21.9608, 21.4117, 0.03487, 24.4461, 2.37973e-19, 2.16264e-19, 0.0000000E+000
 346.51,-0.40821,-0.0586382, 626.592, 614.116, 21.9793, 21.4225, 0.03487, 24.4461, 2.37973e-19, 2.16264e-19, 0.0000000E+000
 348.01,-0.40821,-0.0586382, 626.78, 614.39, 21.9979, 21.4334, 0.03487, 24.4461, 2.37973e-19, 2.16264e-19, 0.0000000E+000
 349.51,-0.40821,-0.0586382, 626.969, 614.666, 22.0168, 21.4445, 0.03487, 24.4461, 2.37973e-19, 2.16264e-19, 0.0000000E+000
 351.01,-0.40821,-0.0586382, 627.133, 614.924, 22.0359, 21.4557, 0.03487, 24.4461, 2.37973e-19, 2.16264e-19, 0.0000000E+000
 352.51,-0.40821,-0.0586382, 627.313, 615.187, 22.0552, 21.467, 0.03487, 24.4461, 2.37973e-19, 2.16264e-19, 0.0000000E+000
 354.01,-0.40821,-0.0586382, 627.485, 615.438, 22.0747, 21.4785, 0.03487, 24.4461, 2.37973e-19, 2.16264e-19, 0.0000000E+000
 355.51,-0.40821,-0.0586382, 627.654, 615.684, 22.0944, 21.4902, 0.03487, 24.4461, 2.37973e-19, 2.16264e-19, 0.0000000E+000
 357.01,-0.40821,-0.0586382, 627.808, 615.926, 22.1143, 21.502, 0.03487, 24.4461, 2.37973e-19, 2.16264e-19, 0.0000000E+000
 358.51,-0.40821,-0.0586382, 627.966, 616.158, 22.1345, 21.514, 0.03487, 24.4461, 2.37973e-19, 2.16264e-19, 0.0000000E+000
 360.01,-0.40821,-0.0586382, 628.127, 616.392, 22.1549, 21.5261, 0.03487, 24.4461, 2.37973e-19, 2.16264e-19, 0.0000000E+000
 361.51,-0.40821,-0.0586382, 628.279, 616.615, 22.1755, 21.5384, 0.03487, 24.4461, 2.37973e-19, 2.16264e-19, 0.0000000E+000
 363.01,-0.40821,-0.0586382, 628.427, 616.835, 22.1964, 21.5508, 0.03487, 24.4461, 2.37973e-19, 2.16264e-19, 0.0000000E+000
 364.51,-0.40821,-0.0586382, 628.57, 617.056, 22.2174, 21.5634, 0.03487, 24.4461, 2.37973e-19, 2.16264e-19, 0.0000000E+000
 366.01,-0.40821,-0.0586382, 628.711, 617.263, 22.2387, 21.5762, 0.03487, 24.4461, 2.37973e-19, 2.16264e-19, 0.0000000E+000
 367.51,-0.40821,-0.0586382, 628.856, 617.475, 22.2603, 21.5891, 0.03487, 24.4461, 2.37973e-19, 2.16264e-19, 0.0000000E+000
 369.01,-0.40821,-0.0586382, 628.998, 617.681, 22.2821, 21.6022, 0.03487, 24.4461, 2.37973e-19, 2.16264e-19, 0.0000000E+000
 370.51,-0.40821,-0.0586382, 629.121, 617.875, 22.3041, 21.6154, 0.03487, 24.4461, 2.37973e-19, 2.16264e-19, 0.0000000E+000
 372.01,-0.40821,-0.0586382, 629.255, 618.074, 22.3264, 21.6288, 0.03487, 24.4461, 2.37973e-19, 2.16264e-19, 0.0000000E+000
 373.51,-0.40821,-0.0586382, 629.391, 618.272, 22.349, 21.6424, 0.03487, 24.4461, 2.37973e-19, 2.16264e-19, 0.0000000E+000
 375.01,-0.40821,-0.0586382, 629.517, 618.456, 22.3717, 21.6561, 0.03487, 24.4461, 2.37973e-19, 2.16264e-19, 0.0000000E+000
 376.51,-0.40821,-0.0586382, 629.645, 618.644, 22.3948, 21.67, 0.03487, 24.4461, 2.37973e-19, 2.16264e-19, 0.0000000E+000
 378.01,-0.40821,-0.0586382, 629.771, 618.83, 22.4181, 21.6841, 0.03487, 24.4461, 2.37973e-19, 2.16264e-19, 0.0000000E+000
 379.51,-0.40821,-0.0586382, 629.881, 619.004, 22.4416, 21.6983, 0.03487, 24.4461, 2.37973e-19, 2.16264e-19, 0.0000000E+000
 381.01,-0.40821,-0.0586382, 630.004, 619.184, 22.4655, 21.7127, 0.03487, 24.4461, 2.37973e-19, 2.16264e-19, 0.0000000E+000
 382.51,-0.40821,-0.0586382, 630.124, 619.359, 22.4896, 21.7273, 0.03487, 24.4461, 2.37973e-19, 2.16264e-19, 0.0000000E+000
 384.01,-0.40821,-0.0586382, 630.242, 619.532, 22.5139, 21.7421, 0.03487, 24.4461, 2.37973e-19, 2.16264e-19, 0.0000000E+000
 385.51,-0.40821,-0.0586382, 630.353, 619.695, 22.5385, 21.7571, 0.03487, 24.4461, 2.37973e-19, 2.16264e-19, 0.0000000E+000
 387.01,-0.40821,-0.0586382, 630.46, 619.86, 22.5634, 21.7722, 0.03487, 24.4461, 2.37973e-19, 2.16264e-19, 0.0000000E+000
 388.51,-0.40821,-0.0586382, 630.57, 620.028, 22.5886, 21.7875, 0.03487, 24.4461, 2.37973e-19, 2.16264e-19, 0.0000000E+000
 390.01,-0.40821,-0.0586382, 630.678, 620.184, 22.6141, 21.803, 0.03487, 24.4461, 2.37973e-19, 2.16264e-19, 0.0000000E+000
 391.51,-0.40821,-0.0586382, 630.785, 620.341, 22.6398, 21.8187, 0.03487, 24.4461, 2.37973e-19, 2.16264e-19, 0.0000000E+000
 393.01,-0.40821,-0.0586382, 630.894, 620.5, 22.6658, 21.8346, 0.03487, 24.4461, 2.37973e-19, 2.16264e-19, 0.0000000E+000
 394.51,-0.40821,-0.0586382, 630.998, 620.653, 22.6921, 21.8506, 0.03487, 24.4461, 2.37973e-19, 2.16264e-19, 0.0000000E+000
 396.01,-0.40821,-0.0586382, 631.098, 620.799, 22.7186, 21.8669, 0.03487, 24.4461, 2.37973e-19, 2.16264e-19, 0.0000000E+000
 397.51,-0.40821,-0.0586382, 631.189, 620.947, 22.7455, 21.8833, 0.03487, 24.4461, 2.37973e-19, 2.16264e-19, 0.0000000E+000
 399.01,-0.40821,-0.0586382, 631.291, 621.095, 22.7726, 21.9, 0.03487, 24.4461, 2.37973e-19, 2.16264e-19, 0.0000000E+000
 400.51,-0.40821,-0.0586382, 631.392, 621.244, 22.8001, 21.9168, 0.03487, 24.4461, 2.37973e-19, 2.16264e-19, 0.0000000E+000
 402.01,-0.40821,-0.0586382, 631.487, 621.382, 22.8278, 21.9338, 0.03487, 24.4461, 2.37973e-19, 2.16264e-19, 0.0000000E+000
 403.51,-0.40821,-0.0586382, 631.581, 621.519, 22.8558, 21.9511, 0.03487, 24.4461, 2.37973e-19, 2.16264e-19, 0.0000000E+000
 405.01,-0.40821,-0.0586382, 631.677, 621.659, 22.8841, 21.9685, 0.03487, 24.4461, 2.37973e-19, 2.16264e-19, 0.0000000E+000
 406.51,-0.40821,-0.0586382, 631.771, 621.798, 22.9126, 21.9861, 0.03487, 24.4461, 2.37973e-19, 2.16264e-19, 0.0000000E+000
 408.01,-0.40821,-0.0586382, 631.852, 621.93, 22.9415, 22.004, 0.03487, 24.4461, 2.37973e-19, 2.16264e-19, 0.0000000E+000
 409.51,-0.40821,-0.0586382, 631.94, 622.059, 22.9707, 22.022, 0.03487, 24.4461, 2.37973e-19, 2.16264e-19, 0.0000000E+000
 411.01,-0.40821,-0.0586382, 632.032, 622.193, 23.0002, 22.0402, 0.03487, 24.4461, 2.37973e-19, 2.16264e-19, 0.0000000E+000
 412.51,-0.40821,-0.0586382, 632.119, 622.32, 23.0299, 22.0587, 0.03487, 24.4461, 2.37973e-19, 2.16264e-19, 0.0000000E+000
 414.01,-0.40821,-0.0586382, 632.207, 622.449, 23.06, 22.0773, 0.03487, 24.4461, 2.37973e-19, 2.16264e-19, 0.0000000E+000
 415.51,-0.40821,-0.0586382, 632.291, 622.572, 23.0903, 22.0962, 0.03487, 24.4461, 2.37973e-19, 2.16264e-19, 0.0000000E+000
 417.01,-0.40821,-0.0586382, 632.372, 622.69, 23.121, 22.1153, 0.03487, 24.4461, 2.37973e-19, 2.16264e-19, 0.0000000E+000
 418.51,-0.40821,-0.0586382, 632.456, 622.813, 23.152, 22.1346, 0.03487, 24.4461, 2.37973e-19, 2.16264e-19, 0.0000000E+000
 420.01,-0.40821,-0.0586382, 632.529, 622.935, 23.1832, 22.1541, 0.03487, 24.4461, 2.37973e-19, 2.16264e-19, 0.0000000E+000
 421.51,-0.40821,-0.0586382, 632.613, 623.057, 23.2148, 22.1738, 0.03487, 24.4461, 2.37973e-19, 2.16264e-19, 0.0000000E+000
 423.01,-0.40821,-0.0586382, 632.69, 623.169, 23.2466, 22.1938, 0.03487, 24.4461, 2.37973e-19, 2.16264e-19, 0.0000000E+000
 424.51,-0.40821,-0.0586382, 632.767, 623.283, 23.2788, 22.214, 0.03487, 24.4461, 2.37973e-19, 2.16264e-19, 0.0000000E+000
 426.01,-0.40821,-0.0586382, 632.848, 623.4, 23.3112, 22.2344, 0.03487, 24.4461, 2.37973e-19, 2.16264e-19, 0.0000000E+000
 427.51,-0.40821,-0.0586382, 632.925, 623.513, 23.344, 22.255, 0.03487, 24.4461, 2.37973e-19, 2.16264e-19, 0.0000000E+000
 429.01,-0.40821,-0.0586382, 633.001, 623.624, 23.377, 22.2758, 0.03487, 24.4461, 2.37973e-19, 2.16264e-19, 0.0000000E+000
 430.51,-0.40821,-0.0586382, 633.077, 623.735, 23.4104, 22.2969, 0.03487, 24.4461, 2.37973e-19, 2.16264e-19, 0.0000000E+000
 432.01,-0.40821,-0.0586382, 633.146, 623.838, 23.444, 22.3181, 0.03487, 24.4461, 2.37973e-19, 2.16264e-19, 0.0000000E+000
 433.51,-0.40821,-0.0586382, 633.211, 623.945, 23.4779, 22.3397, 0.03487, 24.4461, 2.37973e-19, 2.16264e-19, 0.0000000E+000
 435.01,-0.40821,-0.0586382, 633.285, 624.053, 23.5122, 22.3614, 0.03487, 24.4461, 2.37973e-19, 2.16264e-19, 0.0000000E+000
 436.51,-0.40821,-0.0586382, 633.359, 624.161, 23.5467, 22.3834, 0.03487, 24.4461, 2.37973e-19, 2.16264e-19, 0.0000000E+000
 438.01,-0.40821,-0.0586382, 633.431, 624.267, 23.5816, 22.4056, 0.03487, 24.4461, 2.37973e-19, 2.16264e-19, 0.0000000E+000
 439.51,-0.40821,-0.0586382, 633.498, 624.365, 23.6167, 22.428, 0.03487, 24.4461, 2.37973e-19, 2.16264e-19, 0.0000000E+000
 441.01,-0.40821,-0.0586382, 633.565, 624.463, 23.6522, 22.4507, 0.03487, 24.4461, 2.37973e-19, 2.16264e-19, 0.0000000E+000
 442.51,-0.40821,-0.0586382, 633.634, 624.564, 23.6879, 22.4736, 0.03487, 24.4461, 2.37973e-19, 2.16264e-19, 0.0000000E+000
 444.01,-0.40821,-0.0586382, 633.704, 624.666, 23.7239, 22.4967, 0.03487, 24.4461, 2.37973e-19, 2.16264e-19, 0.0000000E+000
 445.51,-0.40821,-0.0586382, 633.772, 624.765, 23.7603, 22.52, 0.03487, 24.4461, 2.37973e-19, 2.16264e-19, 0.0000000E+000
 447.01,-0.40821,-0.0586382, 633.83, 624.86, 23.7969, 22.5437, 0.03487, 24.4461, 2.37973e-19, 2.16264e-19, 0.0000000E+000
 448.51,-0.40821,-0.0586382, 633.892, 624.954, 23.8338, 22.5675, 0.03487, 24.4461, 2.37973e-19, 2.16264e-19, 0.0000000E+000
 450.01,-0.40821,-0.0586382, 633.957, 625.049, 23.871, 22.5916, 0.03487, 24.4461, 2.37973e-19, 2.16264e-19, 0.0000000E+000
 451.51,-0.40821,-0.0586382, 634.023, 625.145, 23.9085, 22.6159, 0.03487, 24.4461, 2.37973e-19, 2.16264e-19, 0.0000000E+000
 453.01,-0.40821,-0.0586382, 634.085, 625.236, 23.9463, 22.6404, 0.03487, 24.4461, 2.37973e-19, 2.16264e-19, 0.0000000E+000
 454.51,-0.40821,-0.0586382, 634.149, 625.329, 23.9844, 22.6652, 0.03487, 24.4461, 2.37973e-19, 2.16264e-19, 0.0000000E+000
 456.01,-0.40821,-0.0586382, 634.213, 625.423, 24.0228, 22.6903, 0.03487, 24.4461, 2.37973e-19, 2.16264e-19, 0.0000000E+000
 457.51,-0.40821,-0.0586382, 634.275, 625.514, 24.0615, 22.7156, 0.03487, 24.4461, 2.37973e-19, 2.16264e-19, 0.0000000E+000
 459.01,-0.40821,-0.0586382, 634.331, 625.597, 24.1005, 22.7411, 0.03487, 24.4461, 2.37973e-19, 2.16264e-19, 0.0000000E+000
 460.51,-0.40821,-0.0586382, 634.39, 625.683, 24.1397, 22.7668, 0.03487, 24.4461, 2.37973e-19, 2.16264e-19, 0.0000000E+000
 462.01,-0.40821,-0.0586382, 634.45, 625.771, 24.1793, 22.7928, 0.03487, 24.4461, 2.37973e-19, 2.16264e-19, 0.0000000E+000
 463.51,-0.40821,-0.0586382, 634.503, 625.858, 24.2192, 22.8191, 0.03487, 24.4461, 2.37973e-19, 2.16264e-19, 0.0000000E+000
 465.01,-0.40821,-0.0586382, 634.562, 625.947, 24.2593, 22.8456, 0.03487, 24.4461, 2.37973e-19, 2.16264e-19, 0.0000000E+000
 466.51,-0.40821,-0.0586382, 634.622, 626.034, 24.2997, 22.8723, 0.03487, 24.4461, 2.37973e-19, 2.16264e-19, 0.0000000E+000
 468.01,-0.40821,-0.0586382, 634.678, 626.117, 24.3404, 22.8993, 0.03487, 24.4461, 2.37973e-19, 2.16264e-19, 0.0000000E+000
 469.51,-0.40821,-0.0586382, 634.731, 626.194, 24.3813, 22.9266, 0.03487, 24.4461, 2.37973e-19, 2.16264e-19, 0.0000000E+000
 471.01,-0.40821,-0.0586382, 634.788, 626.277, 24.4226, 22.954, 0.03487, 24.4461, 2.37973e-19, 2.16264e-19, 0.0000000E+000
 472.51,-0.40821,-0.0586382, 634.845, 626.361, 24.4642, 22.9818, 0.03487, 24.4461, 2.37973e-19, 2.16264e-19, 0.0000000E+000
 474.01,-0.40821,-0.0586382, 634.901, 626.443, 24.506, 23.0097, 0.03487, 24.4461, 2.37973e-19, 2.16264e-19, 0.0000000E+000
 475.51,-0.40821,-0.0586382, 634.954, 626.52, 24.5481, 23.038, 0.03487, 24.4461, 2.37973e-19, 2.16264e-19, 0.0000000E+000
 477.01,-0.40821,-0.0586382, 635.009, 626.6, 24.5905, 23.0664, 0.03487, 24.4461, 2.37973e-19, 2.16264e-19, 0.0000000E+000
 478.51,-0.40821,-0.0586382, 635.063, 626.68, 24.6332, 23.0952, 0.03487, 24.4461, 2.37973e-19, 2.16264e-19, 0.0000000E+000
 480.01,-0.40821,-0.0586382, 635.116, 626.756, 24.6761, 23.1241, 0.03487, 24.4461, 2.37973e-19, 2.16264e-19, 0.0000000E+000
 481.51,-0.40821,-0.0586382, 635.165, 626.829, 24.7193, 23.1533, 0.03487, 24.4461, 2.37973e-19, 2.16264e-19, 0.0000000E+000
 483.01,-0.40821,-0.0586382, 635.208, 626.903, 24.7628, 23.1828, 0.03487, 24.4461, 2.37973e-19, 2.16264e-19, 0.0000000E+000
 484.51,-0.40821,-0.0586382, 635.261, 626.981, 24.8066, 23.2125, 0.03487, 24.4461, 2.37973e-19, 2.16264e-19, 0.0000000E+000
 486.01,-0.40821,-0.0586382, 635.314, 627.059, 24.8506, 23.2425, 0.03487, 24.4461, 2.37973e-19, 2.16264e-19, 0.0000000E+000
 487.51,-0.40821,-0.0586382, 635.365, 627.133, 24.8949, 23.2727, 0.03487, 24.4461, 2.37973e-19, 2.16264e-19, 0.0000000E+000
 489.01,-0.40821,-0.0586382, 635.416, 627.208, 24.9395, 23.3032, 0.03487, 24.4461, 2.37973e-19, 2.16264e-19, 0.0000000E+000
 490.51,-0.40821,-0.0586382, 635.467, 627.283, 24.9844, 23.3339, 0.03487, 24.4461, 2.37973e-19, 2.16264e-19, 0.0000000E+000
 492.01,-0.40821,-0.0586382, 635.514, 627.351, 25.0295, 23.3648, 0.03487, 24.4461, 2.37973e-19, 2.16264e-19, 0.0000000E+000
 493.51,-0.40821,-0.0586382, 635.558, 627.417, 25.0749, 23.396, 0.03487, 24.4461, 2.37973e-19, 2.16264e-19, 0.0000000E+000
 495.01,-0.40821,-0.0586382, 635.607, 627.488, 25.1205, 23.4275, 0.03487, 24.4461, 2.37973e-19, 2.16264e-19, 0.0000000E+000
 496.51,-0.40821,-0.0586382, 635.656, 627.559, 25.1664, 23.4592, 0.03487, 24.4461, 2.37973e-19, 2.16264e-19, 0.0000000E+000
 498.01,-0.40821,-0.0586382, 635.704, 627.63, 25.2126, 23.4912, 0.03487, 24.4461, 2.37973e-19, 2.16264e-19, 0.0000000E+000
 499.51,-0.40821,-0.0586382, 635.753, 627.701, 25.259, 23.5234, 0.03487, 24.4461, 2.37973e-19, 2.16264e-19, 0.0000000E+000
 500,-0.40821,-0.0586382, 635.768, 627.723, 25.2744, 23.5341, 0.03487, 24.4461, 2.37973e-19, 2.16264e-19, 0.0000000E+000