File: PMMA/Calibration_Results/NIST_FSRI/All_Props/DBI_3[NIST_FSRI]_Gasification_q50_R3_Mass.csv
s,kg/m2,,C,C,C,C,m,kg/m2,kg/m2,kg/m2/s
Time,"SD","MF","TW1","TSB1","TAL1","TB1","DX1","SD1","SD_11","BR1"
 0.0000000E+000, 6.96199, 1.00007, 20.9, 20.9, 20.9, 20.9, 0.041108, 31.8163, 7.3702, 0.0000000E+000
 1.5, 6.96199, 1.00007, 126.574, 20.9, 20.9, 20.9, 0.041108, 31.8163, 7.3702, 7.67529e-12
 3.01, 6.96199, 1.00007, 174.003, 20.9, 20.9, 20.9, 0.041108, 31.8163, 7.3702, 1.14327e-09
 4.51, 6.96199, 1.00007, 208.547, 20.9, 20.9, 20.9, 0.041108, 31.8163, 7.3702, 2.32676e-08
 6.01, 6.96199, 1.00007, 236.057, 20.9, 20.9, 20.9, 0.041108, 31.8163, 7.3702, 1.89319e-07
 7.51, 6.96199, 1.00007, 259.161, 20.9, 20.9, 20.9, 0.041108, 31.8163, 7.3702, 9.24417e-07
 9.01, 6.96198, 1.00007, 279.022, 20.9001, 20.9, 20.9, 0.041108, 31.8163, 7.37019, 3.23712e-06
 10.51, 6.96197, 1.00007, 296.475, 20.9006, 20.9, 20.9, 0.041108, 31.8163, 7.37018, 9.04399e-06
 12.01, 6.96195, 1.00006, 311.963, 20.9023, 20.9, 20.9, 0.041108, 31.8163, 7.37016, 2.13656e-05
 13.51, 6.96189, 1.00006, 325.853, 20.907, 20.9, 20.9, 0.0411079, 31.8162, 7.37011, 4.44813e-05
 15.01, 6.96179, 1.00004, 338.399, 20.9178, 20.9, 20.9, 0.0411079, 31.8161, 7.37002, 8.38644e-05
 16.51, 6.9616, 1.00002, 349.774, 20.9391, 20.9, 20.9, 0.0411077, 31.816, 7.36985, 0.000145887
 18, 6.9613, 0.999971, 360.098, 20.9766, 20.9, 20.9, 0.0411075, 31.8157, 7.36957, 0.000237193
 19.5, 6.96082, 0.999902, 369.514, 21.0372, 20.9, 20.9, 0.0411071, 31.8152, 7.36912, 0.000364909
 21, 6.9601, 0.999799, 378.134, 21.129, 20.9, 20.9, 0.0411065, 31.8146, 7.36845, 0.000535967
 22.5, 6.95908, 0.999653, 385.995, 21.2601, 20.9, 20.9, 0.0411057, 31.8136, 7.36749, 0.000755181
 24, 6.95768, 0.999452, 393.154, 21.4389, 20.9, 20.9, 0.0411046, 31.8123, 7.36615, 0.00102592
 25.5, 6.95582, 0.999184, 399.661, 21.6735, 20.9, 20.9, 0.0411031, 31.8105, 7.36438, 0.00134915
 27, 6.95343, 0.99884, 405.557, 21.9717, 20.9, 20.9, 0.0411011, 31.8082, 7.36207, 0.00172337
 28.5, 6.95042, 0.998408, 410.888, 22.3406, 20.9, 20.9, 0.0410987, 31.8053, 7.35917, 0.00214483
 30, 6.94674, 0.99788, 415.693, 22.7864, 20.9, 20.9, 0.0410957, 31.8017, 7.35561, 0.00260765
 31.5, 6.94233, 0.997246, 420.013, 23.3147, 20.9, 20.9, 0.041092, 31.7974, 7.35132, 0.00310443
 33, 6.93715, 0.996502, 423.888, 23.9302, 20.9, 20.9, 0.0410878, 31.7924, 7.34627, 0.00362697
 34.5, 6.93116, 0.995642, 427.359, 24.6364, 20.9, 20.9, 0.0410828, 31.7865, 7.34042, 0.004167
 36, 6.92436, 0.994665, 430.463, 25.4361, 20.9, 20.9, 0.0410772, 31.7799, 7.33376, 0.00471654
 37.5, 6.91673, 0.993568, 433.239, 26.3315, 20.9, 20.9, 0.0410708, 31.7724, 7.32626, 0.00526837
 39, 6.90827, 0.992354, 435.721, 27.324, 20.9, 20.9, 0.0410638, 31.7641, 7.31794, 0.00581634
 40.5, 6.899, 0.991022, 437.942, 28.4144, 20.9, 20.9, 0.041056, 31.7549, 7.30881, 0.00635552
 42, 6.88893, 0.989576, 439.933, 29.6029, 20.9, 20.9, 0.0410476, 31.745, 7.29887, 0.00688203
 43.51, 6.87809, 0.988019, 441.724, 30.894, 20.9, 20.9, 0.0410385, 31.7342, 7.28812, 0.00739462
 45.01, 6.8665, 0.986354, 443.335, 32.2837, 20.9, 20.9, 0.0410288, 31.7227, 7.27661, 0.00788972
 46.51, 6.85419, 0.984585, 444.78, 33.7673, 20.9, 20.9, 0.0410185, 31.7105, 7.26441, 0.00836426
 48.01, 6.84119, 0.982717, 446.088, 35.3508, 20.9, 20.9, 0.0410076, 31.6976, 7.25152, 0.00881993
 49.51, 6.82752, 0.980754, 447.271, 37.0447, 20.9, 20.9, 0.0409961, 31.6841, 7.23796, 0.00925606
 51.01, 6.81322, 0.978699, 448.346, 38.8467, 20.9, 20.9, 0.0409841, 31.6699, 7.22375, 0.009673
 52.51, 6.79831, 0.976557, 449.326, 40.741, 20.9, 20.9, 0.0409715, 31.6551, 7.20894, 0.0100715
 54.01, 6.78281, 0.974332, 450.221, 42.7003, 20.9, 20.9, 0.0409585, 31.6397, 7.19354, 0.0104521
 55.51, 6.76677, 0.972028, 451.041, 44.7173, 20.9, 20.9, 0.040945, 31.6237, 7.17758, 0.0108156
 57.01, 6.7502, 0.969647, 451.795, 46.7907, 20.9, 20.9, 0.040931, 31.6072, 7.16109, 0.0111631
 58.51, 6.73312, 0.967194, 452.491, 48.918, 20.9, 20.9, 0.0409166, 31.5902, 7.14409, 0.0114954
 60.01, 6.71556, 0.964671, 453.134, 51.096, 20.9, 20.9, 0.0409018, 31.5727, 7.12661, 0.0118132
 61.51, 6.69753, 0.962082, 453.726, 53.3222, 20.9, 20.9, 0.0408866, 31.5548, 7.10865, 0.0121165
 63.01, 6.67906, 0.959429, 454.279, 55.5942, 20.9, 20.9, 0.0408711, 31.5364, 7.09026, 0.0124082
 64.51, 6.66017, 0.956715, 454.795, 57.911, 20.9, 20.9, 0.0408551, 31.5175, 7.07143, 0.0126883
 66.01, 6.64087, 0.953942, 455.272, 60.2723, 20.9, 20.9, 0.0408388, 31.4983, 7.05219, 0.0129557
 67.51, 6.62118, 0.951113, 455.726, 62.6756, 20.9, 20.9, 0.0408222, 31.4787, 7.03256, 0.0132153
 69.01, 6.6011, 0.94823, 456.144, 65.1174, 20.9, 20.9, 0.0408053, 31.4587, 7.01255, 0.0134626
 70.51, 6.58067, 0.945294, 456.545, 67.5943, 20.9, 20.9, 0.040788, 31.4383, 6.99217, 0.0137042
 72.01, 6.55988, 0.942308, 456.915, 70.1036, 20.9, 20.9, 0.0407705, 31.4176, 6.97144, 0.0139347
 73.5, 6.53875, 0.939273, 457.272, 72.6261, 20.9, 20.9, 0.0407528, 31.3966, 6.9505, 0.0141592
 75, 6.51729, 0.936191, 457.604, 75.1932, 20.9, 20.9, 0.0407347, 31.3752, 6.9291, 0.0143755
 76.5, 6.49551, 0.933063, 457.925, 77.7861, 20.9, 20.9, 0.0407163, 31.3535, 6.90738, 0.0145877
 78, 6.47343, 0.929889, 458.227, 80.4031, 20.9, 20.9, 0.0406976, 31.3315, 6.88534, 0.0147924
 79.5, 6.45104, 0.926673, 458.512, 83.0423, 20.9, 20.9, 0.0406787, 31.3091, 6.863, 0.0149906
 81, 6.42835, 0.923415, 458.793, 85.7025, 20.9, 20.9, 0.0406596, 31.2865, 6.84036, 0.0151874
 82.5, 6.40538, 0.920115, 459.055, 88.3823, 20.9, 20.9, 0.0406402, 31.2636, 6.81743, 0.0153765
 84, 6.38213, 0.916775, 459.307, 91.0807, 20.9, 20.9, 0.0406205, 31.2403, 6.79423, 0.0155617
 85.5, 6.3586, 0.913395, 459.554, 93.7973, 20.9, 20.9, 0.0406006, 31.2169, 6.77075, 0.0157453
 87, 6.3348, 0.909976, 459.785, 96.532, 20.9, 20.9, 0.0405805, 31.1931, 6.74699, 0.0159228
 88.5, 6.31074, 0.90652, 460.009, 99.2854, 20.9, 20.9, 0.0405602, 31.1691, 6.72298, 0.0160966
 90, 6.28642, 0.903026, 460.233, 102.06, 20.9, 20.9, 0.0405397, 31.1448, 6.6987, 0.0162717
 91.5, 6.26184, 0.899496, 460.441, 104.86, 20.9, 20.9, 0.0405189, 31.1203, 6.67416, 0.0164401
 93, 6.23701, 0.895929, 460.642, 107.679, 20.9, 20.9, 0.0404979, 31.0955, 6.64938, 0.0166058
 94.5, 6.21193, 0.892327, 460.847, 110.515, 20.9, 20.9, 0.0404767, 31.0705, 6.62434, 0.0167734
 96, 6.18661, 0.888689, 461.039, 113.366, 20.9, 20.9, 0.0404553, 31.0452, 6.59905, 0.0169366
 97.5, 6.16104, 0.885016, 461.223, 116.228, 20.9, 20.9, 0.0404337, 31.0196, 6.57353, 0.0170963
 99, 6.13524, 0.88131, 461.407, 119.1, 20.9, 20.9, 0.0404119, 30.9939, 6.54776, 0.0172564
 100.5, 6.10919, 0.877568, 461.59, 121.98, 20.9, 20.9, 0.0403899, 30.9679, 6.52176, 0.017417
 102, 6.08291, 0.873792, 461.761, 124.865, 20.9, 20.9, 0.0403677, 30.9416, 6.49551, 0.0175732
 103.5, 6.05639, 0.869983, 461.929, 127.752, 20.9, 20.9, 0.0403453, 30.9152, 6.46903, 0.0177283
 105, 6.02964, 0.866141, 462.101, 130.64, 20.9001, 20.9, 0.0403227, 30.8884, 6.44232, 0.017885
 106.5, 6.00265, 0.862264, 462.267, 133.524, 20.9001, 20.9, 0.0402999, 30.8615, 6.41538, 0.0180416
 108, 5.97544, 0.858355, 462.424, 136.402, 20.9001, 20.9, 0.0402769, 30.8343, 6.3882, 0.0181943
 109.5, 5.94799, 0.854412, 462.579, 139.268, 20.9001, 20.9, 0.0402537, 30.8069, 6.36079, 0.0183465
 111, 5.92031, 0.850437, 462.741, 142.115, 20.9001, 20.9, 0.0402303, 30.7793, 6.33315, 0.0185025
 112.5, 5.89241, 0.846428, 462.893, 144.936, 20.9001, 20.9, 0.0402067, 30.7514, 6.30528, 0.0186561
 114, 5.86427, 0.842385, 463.042, 147.738, 20.9002, 20.9, 0.0401829, 30.7233, 6.27718, 0.0188087
 115.5, 5.8359, 0.838311, 463.186, 150.523, 20.9002, 20.9, 0.0401589, 30.695, 6.24885, 0.0189592
 117, 5.80731, 0.834203, 463.339, 153.291, 20.9002, 20.9, 0.0401347, 30.6664, 6.2203, 0.0191152
 118.5, 5.77848, 0.830062, 463.484, 156.044, 20.9002, 20.9, 0.0401104, 30.6376, 6.19151, 0.0192692
 120, 5.74942, 0.825888, 463.624, 158.783, 20.9003, 20.9, 0.0400858, 30.6086, 6.16249, 0.0194211
 121.5, 5.72014, 0.821681, 463.761, 161.508, 20.9003, 20.9, 0.0400611, 30.5794, 6.13324, 0.0195732
 123, 5.69062, 0.817442, 463.903, 164.22, 20.9004, 20.9, 0.0400361, 30.5499, 6.10377, 0.0197271
 124.5, 5.66087, 0.813168, 464.044, 166.919, 20.9004, 20.9001, 0.040011, 30.5202, 6.07406, 0.0198837
 126, 5.63089, 0.808862, 464.176, 169.605, 20.9005, 20.9001, 0.0399856, 30.4902, 6.04411, 0.0200364
 127.5, 5.60068, 0.804523, 464.306, 172.279, 20.9006, 20.9001, 0.0399601, 30.4601, 6.01394, 0.0201888
 129, 5.57025, 0.80015, 464.438, 174.941, 20.9007, 20.9001, 0.0399344, 30.4297, 5.98354, 0.0203426
 130.5, 5.53957, 0.795744, 464.574, 177.591, 20.9007, 20.9001, 0.0399084, 30.399, 5.95291, 0.0205
 132, 5.50866, 0.791304, 464.702, 180.23, 20.9008, 20.9001, 0.0398823, 30.3682, 5.92204, 0.0206556
 133.5, 5.47753, 0.786831, 464.825, 182.857, 20.901, 20.9001, 0.039856, 30.3371, 5.89094, 0.0208085
 135, 5.44616, 0.782325, 464.947, 185.473, 20.9011, 20.9001, 0.0398295, 30.3057, 5.85961, 0.020962
 136.5, 5.41455, 0.777786, 465.08, 188.079, 20.9012, 20.9002, 0.0398028, 30.2742, 5.82805, 0.0211218
 138, 5.38271, 0.773212, 465.201, 190.673, 20.9014, 20.9002, 0.0397758, 30.2424, 5.79625, 0.0212773
 139.5, 5.35064, 0.768605, 465.32, 193.257, 20.9015, 20.9002, 0.0397487, 30.2103, 5.76421, 0.0214333
 141, 5.31834, 0.763964, 465.435, 195.831, 20.9017, 20.9002, 0.0397214, 30.1781, 5.73194, 0.0215876
 142.5, 5.2858, 0.75929, 465.557, 198.394, 20.9019, 20.9003, 0.0396939, 30.1456, 5.69945, 0.0217454
 144, 5.25302, 0.754581, 465.678, 200.946, 20.9021, 20.9003, 0.0396662, 30.1128, 5.6667, 0.0219057
 145.5, 5.22, 0.749838, 465.79, 203.489, 20.9023, 20.9003, 0.0396383, 30.0798, 5.63373, 0.0220621
 147, 5.18675, 0.745062, 465.901, 206.021, 20.9026, 20.9004, 0.0396102, 30.0466, 5.60051, 0.022219
 148.5, 5.15326, 0.740251, 466.01, 208.543, 20.9028, 20.9004, 0.0395819, 30.0132, 5.56707, 0.0223756
 150, 5.11953, 0.735407, 466.129, 211.056, 20.9031, 20.9005, 0.0395534, 29.9795, 5.53338, 0.0225378
 151.5, 5.08556, 0.730527, 466.24, 213.558, 20.9034, 20.9005, 0.0395246, 29.9456, 5.49945, 0.022699
 153, 5.05136, 0.725613, 466.345, 216.051, 20.9038, 20.9006, 0.0394957, 29.9114, 5.46528, 0.0228569
 154.5, 5.01691, 0.720665, 466.449, 218.534, 20.9041, 20.9007, 0.0394666, 29.877, 5.43088, 0.0230159
 156, 4.98222, 0.715683, 466.557, 221.007, 20.9045, 20.9007, 0.0394373, 29.8424, 5.39623, 0.0231775
 157.5, 4.94729, 0.710664, 466.667, 223.47, 20.9049, 20.9008, 0.0394077, 29.8075, 5.36134, 0.0233416
 159, 4.91211, 0.705611, 466.77, 225.923, 20.9054, 20.9009, 0.039378, 29.7723, 5.3262, 0.0235046
 160.51, 4.87669, 0.700523, 466.87, 228.383, 20.9058, 20.901, 0.0393479, 29.7367, 5.29059, 0.0236666
 162.01, 4.84103, 0.695401, 466.967, 230.817, 20.9063, 20.9011, 0.0393177, 29.7011, 5.25496, 0.0238277
 163.51, 4.80512, 0.690243, 467.076, 233.241, 20.9069, 20.9012, 0.0392873, 29.6652, 5.2191, 0.0239961
 165.01, 4.76896, 0.685048, 467.176, 235.655, 20.9075, 20.9013, 0.0392568, 29.6291, 5.18298, 0.024162
 166.51, 4.73256, 0.679819, 467.272, 238.059, 20.9081, 20.9015, 0.039226, 29.5927, 5.14661, 0.0243271
 168.01, 4.6959, 0.674553, 467.367, 240.453, 20.9087, 20.9016, 0.039195, 29.5561, 5.10999, 0.0244924
 169.51, 4.659, 0.669252, 467.457, 242.837, 20.9094, 20.9018, 0.0391638, 29.5192, 5.07313, 0.0246563
 171.01, 4.62184, 0.663914, 467.565, 245.212, 20.9101, 20.9019, 0.0391324, 29.4821, 5.03601, 0.0248311
 172.51, 4.58442, 0.65854, 467.657, 247.576, 20.9109, 20.9021, 0.0391008, 29.4448, 4.99864, 0.0249997
 174.01, 4.54676, 0.653129, 467.747, 249.93, 20.9117, 20.9023, 0.0390689, 29.4071, 4.96101, 0.0251685
 175.51, 4.50883, 0.647681, 467.837, 252.273, 20.9126, 20.9025, 0.0390368, 29.3692, 4.92313, 0.0253382
 177.01, 4.47065, 0.642197, 467.928, 254.606, 20.9135, 20.9027, 0.0390046, 29.3311, 4.88499, 0.0255087
 178.51, 4.43221, 0.636675, 468.027, 256.929, 20.9144, 20.9029, 0.0389721, 29.2927, 4.84659, 0.0256867
 180.01, 4.39351, 0.631115, 468.115, 259.24, 20.9154, 20.9032, 0.0389393, 29.254, 4.80793, 0.0258605
 181.51, 4.35455, 0.625518, 468.199, 261.541, 20.9165, 20.9034, 0.0389064, 29.2151, 4.76901, 0.0260324
 183.01, 4.31532, 0.619884, 468.286, 263.83, 20.9176, 20.9037, 0.0388732, 29.1759, 4.72982, 0.0262082
 184.51, 4.27583, 0.614212, 468.377, 266.108, 20.9188, 20.904, 0.0388399, 29.1365, 4.69038, 0.0263861
 186.01, 4.23607, 0.6085, 468.466, 268.374, 20.92, 20.9043, 0.0388062, 29.0968, 4.65066, 0.0265665
 187.51, 4.19605, 0.60275, 468.55, 270.629, 20.9213, 20.9047, 0.0387724, 29.0568, 4.61068, 0.0267457
 189.01, 4.15575, 0.596962, 468.63, 272.872, 20.9226, 20.905, 0.0387383, 29.0165, 4.57042, 0.0269227
 190.51, 4.11519, 0.591135, 468.712, 275.1, 20.9241, 20.9054, 0.038704, 28.976, 4.5299, 0.027103
 192.01, 4.07435, 0.585269, 468.802, 277.309, 20.9255, 20.9058, 0.0386695, 28.9352, 4.48911, 0.0272882
 193.51, 4.03323, 0.579362, 468.884, 279.502, 20.9271, 20.9062, 0.0386347, 28.8942, 4.44804, 0.0274713
 195.01, 3.99184, 0.573417, 468.965, 281.681, 20.9287, 20.9066, 0.0385997, 28.8528, 4.40669, 0.0276557
 196.51, 3.95017, 0.567431, 469.041, 283.847, 20.9303, 20.9071, 0.0385645, 28.8112, 4.36507, 0.0278382
 198.01, 3.90823, 0.561407, 469.117, 285.999, 20.9321, 20.9076, 0.0385291, 28.7693, 4.32317, 0.0280214
 199.51, 3.86601, 0.555342, 469.206, 288.137, 20.9339, 20.9081, 0.0384934, 28.7271, 4.28099, 0.0282133
 201.01, 3.8235, 0.549236, 469.282, 290.261, 20.9358, 20.9086, 0.0384574, 28.6847, 4.23853, 0.0283989
 202.51, 3.78072, 0.54309, 469.359, 292.371, 20.9378, 20.9092, 0.0384212, 28.6419, 4.19579, 0.028587
 204.01, 3.73765, 0.536903, 469.431, 294.466, 20.9398, 20.9098, 0.0383848, 28.5989, 4.15277, 0.0287723
 205.51, 3.69431, 0.530677, 469.502, 296.547, 20.9419, 20.9104, 0.0383482, 28.5556, 4.10947, 0.0289583
 207.01, 3.65067, 0.524409, 469.588, 298.612, 20.9441, 20.9111, 0.0383113, 28.512, 4.06588, 0.0291529
 208.51, 3.60676, 0.5181, 469.66, 300.659, 20.9464, 20.9118, 0.0382742, 28.4681, 4.02201, 0.0293415
 210.01, 3.56256, 0.511751, 469.731, 302.688, 20.9488, 20.9125, 0.0382368, 28.424, 3.97786, 0.0295295
 211.51, 3.51807, 0.505362, 469.8, 304.7, 20.9512, 20.9133, 0.0381992, 28.3795, 3.93342, 0.0297172
 213.01, 3.47331, 0.498932, 469.869, 306.697, 20.9538, 20.914, 0.0381613, 28.3348, 3.8887, 0.0299034
 214.51, 3.42826, 0.49246, 469.95, 308.677, 20.9564, 20.9149, 0.0381232, 28.2898, 3.8437, 0.0300984
 216.01, 3.38293, 0.485948, 470.017, 310.641, 20.9591, 20.9157, 0.0380849, 28.2445, 3.79841, 0.0302853
 217.51, 3.33731, 0.479396, 470.084, 312.59, 20.9619, 20.9166, 0.0380463, 28.199, 3.75284, 0.0304721
 219.01, 3.29142, 0.472803, 470.149, 314.522, 20.9648, 20.9176, 0.0380075, 28.1531, 3.70699, 0.0306572
 220.51, 3.24525, 0.466171, 470.218, 316.44, 20.9678, 20.9186, 0.0379685, 28.107, 3.66086, 0.0308423
 222.01, 3.19879, 0.459498, 470.291, 318.342, 20.9709, 20.9196, 0.0379292, 28.0606, 3.61446, 0.0310326
 223.51, 3.15206, 0.452785, 470.353, 320.228, 20.9741, 20.9206, 0.0378897, 28.0139, 3.56777, 0.0312141
 225.01, 3.10506, 0.446033, 470.417, 322.099, 20.9774, 20.9218, 0.0378499, 27.9669, 3.52081, 0.031396
 226.51, 3.05779, 0.439243, 470.478, 323.954, 20.9808, 20.9229, 0.03781, 27.9197, 3.47358, 0.0315748
 228.01, 3.01025, 0.432413, 470.546, 325.793, 20.9843, 20.9241, 0.0377698, 27.8722, 3.42608, 0.0317553
 229.51, 2.96243, 0.425545, 470.613, 327.617, 20.9879, 20.9254, 0.0377293, 27.8244, 3.37831, 0.0319361
 231.01, 2.91435, 0.418639, 470.673, 329.428, 20.9916, 20.9266, 0.0376887, 27.7764, 3.33027, 0.0321106
 232.51, 2.86602, 0.411695, 470.733, 331.226, 20.9954, 20.928, 0.0376478, 27.7281, 3.28198, 0.0322819
 234.01, 2.81742, 0.404715, 470.792, 333.012, 20.9994, 20.9294, 0.0376067, 27.6795, 3.23342, 0.0324518
 235.51, 2.76858, 0.397698, 470.859, 334.786, 21.0034, 20.9308, 0.0375654, 27.6307, 3.18462, 0.0326224
 237.01, 2.71947, 0.390645, 470.923, 336.548, 21.0075, 20.9323, 0.0375239, 27.5817, 3.13555, 0.0327907
 238.51, 2.67012, 0.383556, 470.98, 338.302, 21.0118, 20.9339, 0.0374821, 27.5324, 3.08624, 0.0329528
 240.01, 2.62054, 0.376433, 471.038, 340.047, 21.0162, 20.9355, 0.0374402, 27.4828, 3.03669, 0.0331118
 241.51, 2.57071, 0.369275, 471.096, 341.785, 21.0207, 20.9371, 0.0373981, 27.433, 2.98691, 0.0332683
 243.01, 2.52065, 0.362084, 471.163, 343.515, 21.0253, 20.9389, 0.0373557, 27.383, 2.93688, 0.0334258
 244.51, 2.47036, 0.35486, 471.226, 345.239, 21.03, 20.9406, 0.0373132, 27.3327, 2.88663, 0.0335806
 246.01, 2.41984, 0.347603, 471.282, 346.96, 21.0348, 20.9425, 0.0372705, 27.2823, 2.83615, 0.0337271
 247.51, 2.3691, 0.340315, 471.343, 348.676, 21.0398, 20.9444, 0.0372275, 27.2316, 2.78544, 0.0338723
 249.01, 2.31815, 0.332996, 471.404, 350.391, 21.0449, 20.9463, 0.0371845, 27.1806, 2.73453, 0.0340145
 250.51, 2.26699, 0.325646, 471.473, 352.105, 21.0501, 20.9483, 0.0371412, 27.1295, 2.6834, 0.0341577
 252.01, 2.21561, 0.318266, 471.536, 353.821, 21.0554, 20.9504, 0.0370977, 27.0782, 2.63205, 0.0342949
 253.51, 2.16404, 0.310858, 471.596, 355.54, 21.0609, 20.9526, 0.0370541, 27.0266, 2.58051, 0.0344261
 255.01, 2.11227, 0.303421, 471.662, 357.264, 21.0664, 20.9548, 0.0370103, 26.9749, 2.52877, 0.0345568
 256.51, 2.0603, 0.295957, 471.734, 358.994, 21.0721, 20.9571, 0.0369664, 26.923, 2.47684, 0.034686
 258.01, 2.00815, 0.288465, 471.805, 360.733, 21.078, 20.9594, 0.0369222, 26.8708, 2.42471, 0.0348124
 259.51, 1.95581, 0.280946, 471.874, 362.482, 21.0839, 20.9619, 0.036878, 26.8185, 2.3724, 0.0349331
 261.01, 1.90329, 0.273402, 471.948, 364.243, 21.09, 20.9643, 0.0368335, 26.766, 2.31991, 0.0350525
 262.51, 1.85059, 0.265833, 472.023, 366.018, 21.0963, 20.9669, 0.036789, 26.7134, 2.26725, 0.0351673
 264.01, 1.79772, 0.258238, 472.11, 367.81, 21.1026, 20.9696, 0.0367442, 26.6605, 2.2144, 0.0352857
 265.51, 1.74468, 0.250619, 472.191, 369.619, 21.1091, 20.9723, 0.0366994, 26.6075, 2.16139, 0.0353965
 267.01, 1.69148, 0.242977, 472.276, 371.448, 21.1158, 20.9751, 0.0366544, 26.5543, 2.10822, 0.0355039
 268.51, 1.63812, 0.235311, 472.367, 373.3, 21.1225, 20.9779, 0.0366092, 26.501, 2.05488, 0.0356102
 270.01, 1.5846, 0.227623, 472.471, 375.176, 21.1294, 20.9809, 0.0365639, 26.4475, 2.00138, 0.0357179
 271.51, 1.53092, 0.219912, 472.571, 377.081, 21.1365, 20.9839, 0.0365185, 26.3938, 1.94773, 0.0358188
 273.01, 1.47709, 0.21218, 472.679, 379.016, 21.1437, 20.987, 0.036473, 26.34, 1.89392, 0.0359174
 274.51, 1.42312, 0.204427, 472.797, 380.983, 21.151, 20.9902, 0.0364273, 26.2861, 1.83997, 0.0360151
 276.01, 1.369, 0.196653, 472.923, 382.986, 21.1584, 20.9934, 0.0363815, 26.232, 1.78588, 0.036112
 277.51, 1.31474, 0.188859, 473.053, 385.028, 21.1661, 20.9968, 0.0363356, 26.1778, 1.73164, 0.0362031
 279.01, 1.26034, 0.181045, 473.195, 387.112, 21.1738, 21.0002, 0.0362896, 26.1234, 1.67727, 0.0362932
 280.51, 1.20581, 0.173212, 473.353, 389.241, 21.1817, 21.0037, 0.0362435, 26.0689, 1.62276, 0.0363831
 282.01, 1.15115, 0.16536, 473.52, 391.419, 21.1897, 21.0074, 0.0361972, 26.0142, 1.56812, 0.036469
 283.51, 1.09637, 0.157491, 473.696, 393.65, 21.1979, 21.011, 0.0361509, 25.9595, 1.51335, 0.0365489
 285.01, 1.04146, 0.149603, 473.897, 395.937, 21.2062, 21.0148, 0.0361044, 25.9046, 1.45847, 0.0366308
 286.51, 0.98644, 0.141699, 474.111, 398.286, 21.2147, 21.0187, 0.0360579, 25.8496, 1.40346, 0.0367071
 288.01, 0.931309, 0.13378, 474.345, 400.7, 21.2233, 21.0227, 0.0360112, 25.7945, 1.34835, 0.0367782
 289.51, 0.87607, 0.125845, 474.603, 403.186, 21.2321, 21.0267, 0.0359645, 25.7392, 1.29312, 0.0368474
 291.01, 0.820736, 0.117896, 474.885, 405.75, 21.241, 21.0309, 0.0359177, 25.6839, 1.23781, 0.0369099
 292.51, 0.765312, 0.109935, 475.202, 408.397, 21.2501, 21.0351, 0.0358708, 25.6285, 1.1824, 0.0369688
 294.01, 0.70981, 0.101962, 475.545, 411.135, 21.2593, 21.0394, 0.0358238, 25.573, 1.1269, 0.0370175
 295.51, 0.654237, 0.0939793, 475.935, 413.973, 21.2687, 21.0439, 0.0357768, 25.5175, 1.07134, 0.0370622
 297.01, 0.598609, 0.0859885, 476.367, 416.919, 21.2782, 21.0484, 0.0357297, 25.4618, 1.01572, 0.0370957
 298.51, 0.54294, 0.0779918, 476.853, 419.984, 21.2879, 21.053, 0.0356826, 25.4062, 0.960059, 0.0371195
 300.01, 0.487248, 0.0699918, 477.402, 423.179, 21.2977, 21.0578, 0.0356354, 25.3505, 0.90437, 0.0371307
 301.51, 0.431556, 0.0619918, 478.023, 426.518, 21.3077, 21.0626, 0.0355883, 25.2948, 0.848676, 0.0371257
 303.01, 0.375889, 0.0539955, 478.729, 430.017, 21.3179, 21.0675, 0.0355412, 25.2391, 0.793003, 0.0371013
 304.51, 0.32028, 0.0460073, 479.54, 433.694, 21.3282, 21.0726, 0.0354941, 25.1835, 0.737382, 0.0370553
 306.01, 0.264767, 0.0380331, 480.474, 437.571, 21.3386, 21.0777, 0.0354471, 25.128, 0.681852, 0.0369813
 307.51, 0.2094, 0.0300797, 481.556, 441.674, 21.3492, 21.0829, 0.0354002, 25.0726, 0.626457, 0.0368728
 309.01, 0.154237, 0.0221557, 482.82, 446.036, 21.36, 21.0883, 0.0353535, 25.0174, 0.571257, 0.0367208
 310.51, 0.0993538, 0.0142719, 484.309, 450.698, 21.3709, 21.0937, 0.035307, 24.9624, 0.516324, 0.0365156
 312.01, 0.0448463, 0.00644204, 486.078, 455.71, 21.382, 21.0993, 0.0352608, 24.9079, 0.46175, 0.0362411
 313.51,-0.00916265,-0.00131619, 488.199, 461.137, 21.3933, 21.1049, 0.035215, 24.8538, 0.407652, 0.035877
 315.01,-0.0625206,-0.00898091, 490.795, 467.095, 21.4047, 21.1107, 0.0351698, 24.8003, 0.354181, 0.0354102
 316.51,-0.115027,-0.0165233, 493.972, 473.7, 21.4162, 21.1166, 0.0351252, 24.7476, 0.30152, 0.0347783
 318.01,-0.166363,-0.0238975, 497.934, 481.097, 21.4279, 21.1226, 0.0350816, 24.6961, 0.249973, 0.0339183
 319.51,-0.216103,-0.0310425, 502.949, 489.531, 21.4398, 21.1287, 0.0350392, 24.6461, 0.199945, 0.0327369
 321.01,-0.263614,-0.0378674, 509.463, 499.38, 21.4519, 21.1349, 0.0349987, 24.5981, 0.152027, 0.0310764
 322.51,-0.307919,-0.0442317, 518.151, 511.251, 21.4641, 21.1412, 0.0349607, 24.5532, 0.107127, 0.028664
 324.01,-0.347403,-0.0499035, 530.032, 526.029, 21.4765, 21.1477, 0.0349265, 24.5129, 0.0667358, 0.0249668
 325.51,-0.379294,-0.0544845, 546.685, 545.247, 21.489, 21.1542, 0.0348983, 24.4795, 0.0334097, 0.0191288
 327.01,-0.399711,-0.0574174, 568.66, 568.271, 21.5017, 21.1609, 0.0348792, 24.457, 0.0108998, 0.0105565
 328.51,-0.40821,-0.0586382, 589.511, 586.629, 21.5146, 21.1677, 0.0348714, 24.4477, 0.00160254, 0.00253755
 330.01,-0.40821,-0.0586382, 594.818, 566.392, 21.5276, 21.1746, 0.03487, 24.4461, 2.26723e-19, 0.0000000E+000
 331.51,-0.40821,-0.0586382, 599.075, 572.848, 21.5408, 21.1816, 0.03487, 24.4461, 2.26723e-19, 0.0000000E+000
 333.01,-0.40821,-0.0586382, 602.202, 577.575, 21.5541, 21.1887, 0.03487, 24.4461, 2.26723e-19, 0.0000000E+000
 334.51,-0.40821,-0.0586382, 604.657, 581.275, 21.5677, 21.196, 0.03487, 24.4461, 2.26723e-19, 0.0000000E+000
 336.01,-0.40821,-0.0586382, 606.66, 584.295, 21.5813, 21.2034, 0.03487, 24.4461, 2.26723e-19, 0.0000000E+000
 337.51,-0.40821,-0.0586382, 608.336, 586.814, 21.5952, 21.2109, 0.03487, 24.4461, 2.26723e-19, 0.0000000E+000
 339.01,-0.40821,-0.0586382, 609.774, 588.978, 21.6092, 21.2185, 0.03487, 24.4461, 2.26723e-19, 0.0000000E+000
 340.51,-0.40821,-0.0586382, 611.037, 590.872, 21.6234, 21.2263, 0.03487, 24.4461, 2.26723e-19, 0.0000000E+000
 342.01,-0.40821,-0.0586382, 612.16, 592.553, 21.6378, 21.2341, 0.03487, 24.4461, 2.26723e-19, 0.0000000E+000
 343.51,-0.40821,-0.0586382, 613.158, 594.062, 21.6523, 21.2421, 0.03487, 24.4461, 2.26723e-19, 0.0000000E+000
 345.01,-0.40821,-0.0586382, 614.076, 595.428, 21.667, 21.2503, 0.03487, 24.4461, 2.26723e-19, 0.0000000E+000
 346.51,-0.40821,-0.0586382, 614.914, 596.676, 21.6818, 21.2585, 0.03487, 24.4461, 2.26723e-19, 0.0000000E+000
 348.01,-0.40821,-0.0586382, 615.674, 597.821, 21.6969, 21.2669, 0.03487, 24.4461, 2.26723e-19, 0.0000000E+000
 349.51,-0.40821,-0.0586382, 616.379, 598.878, 21.7121, 21.2754, 0.03487, 24.4461, 2.26723e-19, 0.0000000E+000
 351.01,-0.40821,-0.0586382, 617.036, 599.86, 21.7275, 21.284, 0.03487, 24.4461, 2.26723e-19, 0.0000000E+000
 352.51,-0.40821,-0.0586382, 617.653, 600.778, 21.743, 21.2927, 0.03487, 24.4461, 2.26723e-19, 0.0000000E+000
 354.01,-0.40821,-0.0586382, 618.228, 601.634, 21.7587, 21.3016, 0.03487, 24.4461, 2.26723e-19, 0.0000000E+000
 355.51,-0.40821,-0.0586382, 618.763, 602.439, 21.7746, 21.3106, 0.03487, 24.4461, 2.26723e-19, 0.0000000E+000
 357.01,-0.40821,-0.0586382, 619.268, 603.199, 21.7907, 21.3198, 0.03487, 24.4461, 2.26723e-19, 0.0000000E+000
 358.51,-0.40821,-0.0586382, 619.748, 603.917, 21.8069, 21.3291, 0.03487, 24.4461, 2.26723e-19, 0.0000000E+000
 360.01,-0.40821,-0.0586382, 620.208, 604.593, 21.8233, 21.3385, 0.03487, 24.4461, 2.26723e-19, 0.0000000E+000
 361.51,-0.40821,-0.0586382, 620.63, 605.231, 21.8399, 21.348, 0.03487, 24.4461, 2.26723e-19, 0.0000000E+000
 363.01,-0.40821,-0.0586382, 621.041, 605.84, 21.8566, 21.3577, 0.03487, 24.4461, 2.26723e-19, 0.0000000E+000
 364.51,-0.40821,-0.0586382, 621.43, 606.42, 21.8735, 21.3675, 0.03487, 24.4461, 2.26723e-19, 0.0000000E+000
 366.01,-0.40821,-0.0586382, 621.794, 606.975, 21.8906, 21.3774, 0.03487, 24.4461, 2.26723e-19, 0.0000000E+000
 367.51,-0.40821,-0.0586382, 622.159, 607.507, 21.9079, 21.3875, 0.03487, 24.4461, 2.26723e-19, 0.0000000E+000
 369.01,-0.40821,-0.0586382, 622.491, 608.013, 21.9254, 21.3977, 0.03487, 24.4461, 2.26723e-19, 0.0000000E+000
 370.51,-0.40821,-0.0586382, 622.826, 608.5, 21.943, 21.4081, 0.03487, 24.4461, 2.26723e-19, 0.0000000E+000
 372.01,-0.40821,-0.0586382, 623.131, 608.967, 21.9608, 21.4185, 0.03487, 24.4461, 2.26723e-19, 0.0000000E+000
 373.51,-0.40821,-0.0586382, 623.442, 609.42, 21.9788, 21.4292, 0.03487, 24.4461, 2.26723e-19, 0.0000000E+000
 375.01,-0.40821,-0.0586382, 623.734, 609.857, 21.9969, 21.4399, 0.03487, 24.4461, 2.26723e-19, 0.0000000E+000
 376.51,-0.40821,-0.0586382, 624.013, 610.274, 22.0153, 21.4508, 0.03487, 24.4461, 2.26723e-19, 0.0000000E+000
 378.01,-0.40821,-0.0586382, 624.29, 610.678, 22.0338, 21.4619, 0.03487, 24.4461, 2.26723e-19, 0.0000000E+000
 379.51,-0.40821,-0.0586382, 624.546, 611.072, 22.0525, 21.473, 0.03487, 24.4461, 2.26723e-19, 0.0000000E+000
 381.01,-0.40821,-0.0586382, 624.804, 611.448, 22.0714, 21.4844, 0.03487, 24.4461, 2.26723e-19, 0.0000000E+000
 382.51,-0.40821,-0.0586382, 625.053, 611.815, 22.0904, 21.4958, 0.03487, 24.4461, 2.26723e-19, 0.0000000E+000
 384.01,-0.40821,-0.0586382, 625.286, 612.171, 22.1097, 21.5074, 0.03487, 24.4461, 2.26723e-19, 0.0000000E+000
 385.51,-0.40821,-0.0586382, 625.521, 612.514, 22.1291, 21.5192, 0.03487, 24.4461, 2.26723e-19, 0.0000000E+000
 387.01,-0.40821,-0.0586382, 625.747, 612.853, 22.1487, 21.5311, 0.03487, 24.4461, 2.26723e-19, 0.0000000E+000
 388.51,-0.40821,-0.0586382, 625.959, 613.173, 22.1686, 21.5431, 0.03487, 24.4461, 2.26723e-19, 0.0000000E+000
 390.01,-0.40821,-0.0586382, 626.179, 613.494, 22.1885, 21.5553, 0.03487, 24.4461, 2.26723e-19, 0.0000000E+000
 391.51,-0.40821,-0.0586382, 626.386, 613.797, 22.2087, 21.5676, 0.03487, 24.4461, 2.26723e-19, 0.0000000E+000
 393.01,-0.40821,-0.0586382, 626.581, 614.1, 22.2291, 21.5801, 0.03487, 24.4461, 2.26723e-19, 0.0000000E+000
 394.51,-0.40821,-0.0586382, 626.778, 614.386, 22.2497, 21.5927, 0.03487, 24.4461, 2.26723e-19, 0.0000000E+000
 396.01,-0.40821,-0.0586382, 626.975, 614.675, 22.2705, 21.6054, 0.03487, 24.4461, 2.26723e-19, 0.0000000E+000
 397.51,-0.40821,-0.0586382, 627.147, 614.945, 22.2914, 21.6183, 0.03487, 24.4461, 2.26723e-19, 0.0000000E+000
 399.01,-0.40821,-0.0586382, 627.335, 615.218, 22.3126, 21.6314, 0.03487, 24.4461, 2.26723e-19, 0.0000000E+000
 400.51,-0.40821,-0.0586382, 627.512, 615.477, 22.334, 21.6446, 0.03487, 24.4461, 2.26723e-19, 0.0000000E+000
 402.01,-0.40821,-0.0586382, 627.688, 615.734, 22.3556, 21.658, 0.03487, 24.4461, 2.26723e-19, 0.0000000E+000
 403.51,-0.40821,-0.0586382, 627.845, 615.981, 22.3773, 21.6715, 0.03487, 24.4461, 2.26723e-19, 0.0000000E+000
 405.01,-0.40821,-0.0586382, 628.013, 616.226, 22.3993, 21.6852, 0.03487, 24.4461, 2.26723e-19, 0.0000000E+000
 406.51,-0.40821,-0.0586382, 628.178, 616.467, 22.4215, 21.699, 0.03487, 24.4461, 2.26723e-19, 0.0000000E+000
 408.01,-0.40821,-0.0586382, 628.334, 616.695, 22.4439, 21.713, 0.03487, 24.4461, 2.26723e-19, 0.0000000E+000
 409.51,-0.40821,-0.0586382, 628.478, 616.922, 22.4666, 21.7271, 0.03487, 24.4461, 2.26723e-19, 0.0000000E+000
 411.01,-0.40821,-0.0586382, 628.633, 617.149, 22.4894, 21.7414, 0.03487, 24.4461, 2.26723e-19, 0.0000000E+000
 412.51,-0.40821,-0.0586382, 628.78, 617.363, 22.5125, 21.7558, 0.03487, 24.4461, 2.26723e-19, 0.0000000E+000
 414.01,-0.40821,-0.0586382, 628.929, 617.58, 22.5358, 21.7704, 0.03487, 24.4461, 2.26723e-19, 0.0000000E+000
 415.51,-0.40821,-0.0586382, 629.069, 617.786, 22.5593, 21.7852, 0.03487, 24.4461, 2.26723e-19, 0.0000000E+000
 417.01,-0.40821,-0.0586382, 629.198, 617.99, 22.583, 21.8001, 0.03487, 24.4461, 2.26723e-19, 0.0000000E+000
 418.51,-0.40821,-0.0586382, 629.338, 618.195, 22.607, 21.8152, 0.03487, 24.4461, 2.26723e-19, 0.0000000E+000
 420.01,-0.40821,-0.0586382, 629.472, 618.391, 22.6312, 21.8305, 0.03487, 24.4461, 2.26723e-19, 0.0000000E+000
 421.51,-0.40821,-0.0586382, 629.603, 618.582, 22.6556, 21.8459, 0.03487, 24.4461, 2.26723e-19, 0.0000000E+000
 423.01,-0.40821,-0.0586382, 629.735, 618.776, 22.6803, 21.8615, 0.03487, 24.4461, 2.26723e-19, 0.0000000E+000
 424.51,-0.40821,-0.0586382, 629.85, 618.959, 22.7052, 21.8772, 0.03487, 24.4461, 2.26723e-19, 0.0000000E+000
 426.01,-0.40821,-0.0586382, 629.975, 619.141, 22.7304, 21.8932, 0.03487, 24.4461, 2.26723e-19, 0.0000000E+000
 427.51,-0.40821,-0.0586382, 630.1, 619.324, 22.7558, 21.9092, 0.03487, 24.4461, 2.26723e-19, 0.0000000E+000
 429.01,-0.40821,-0.0586382, 630.222, 619.503, 22.7814, 21.9255, 0.03487, 24.4461, 2.26723e-19, 0.0000000E+000
 430.51,-0.40821,-0.0586382, 630.337, 619.671, 22.8073, 21.9419, 0.03487, 24.4461, 2.26723e-19, 0.0000000E+000
 432.01,-0.40821,-0.0586382, 630.45, 619.841, 22.8334, 21.9585, 0.03487, 24.4461, 2.26723e-19, 0.0000000E+000
 433.51,-0.40821,-0.0586382, 630.56, 620.013, 22.8598, 21.9753, 0.03487, 24.4461, 2.26723e-19, 0.0000000E+000
 435.01,-0.40821,-0.0586382, 630.671, 620.175, 22.8865, 21.9923, 0.03487, 24.4461, 2.26723e-19, 0.0000000E+000
 436.51,-0.40821,-0.0586382, 630.781, 620.336, 22.9134, 22.0094, 0.03487, 24.4461, 2.26723e-19, 0.0000000E+000
 438.01,-0.40821,-0.0586382, 630.893, 620.499, 22.9405, 22.0267, 0.03487, 24.4461, 2.26723e-19, 0.0000000E+000
 439.51,-0.40821,-0.0586382, 631, 620.656, 22.968, 22.0442, 0.03487, 24.4461, 2.26723e-19, 0.0000000E+000
 441.01,-0.40821,-0.0586382, 631.103, 620.806, 22.9957, 22.0619, 0.03487, 24.4461, 2.26723e-19, 0.0000000E+000
 442.51,-0.40821,-0.0586382, 631.196, 620.958, 23.0236, 22.0798, 0.03487, 24.4461, 2.26723e-19, 0.0000000E+000
 444.01,-0.40821,-0.0586382, 631.301, 621.11, 23.0518, 22.0978, 0.03487, 24.4461, 2.26723e-19, 0.0000000E+000
 445.51,-0.40821,-0.0586382, 631.405, 621.262, 23.0803, 22.116, 0.03487, 24.4461, 2.26723e-19, 0.0000000E+000
 447.01,-0.40821,-0.0586382, 631.5, 621.401, 23.1091, 22.1345, 0.03487, 24.4461, 2.26723e-19, 0.0000000E+000
 448.51,-0.40821,-0.0586382, 631.597, 621.543, 23.1381, 22.1531, 0.03487, 24.4461, 2.26723e-19, 0.0000000E+000
 450.01,-0.40821,-0.0586382, 631.695, 621.686, 23.1674, 22.1719, 0.03487, 24.4461, 2.26723e-19, 0.0000000E+000
 451.51,-0.40821,-0.0586382, 631.791, 621.827, 23.197, 22.1909, 0.03487, 24.4461, 2.26723e-19, 0.0000000E+000
 453.01,-0.40821,-0.0586382, 631.872, 621.959, 23.2268, 22.21, 0.03487, 24.4461, 2.26723e-19, 0.0000000E+000
 454.51,-0.40821,-0.0586382, 631.964, 622.094, 23.2569, 22.2294, 0.03487, 24.4461, 2.26723e-19, 0.0000000E+000
 456.01,-0.40821,-0.0586382, 632.056, 622.229, 23.2873, 22.249, 0.03487, 24.4461, 2.26723e-19, 0.0000000E+000
 457.51,-0.40821,-0.0586382, 632.146, 622.36, 23.318, 22.2688, 0.03487, 24.4461, 2.26723e-19, 0.0000000E+000
 459.01,-0.40821,-0.0586382, 632.236, 622.492, 23.349, 22.2887, 0.03487, 24.4461, 2.26723e-19, 0.0000000E+000
 460.51,-0.40821,-0.0586382, 632.319, 622.613, 23.3802, 22.3089, 0.03487, 24.4461, 2.26723e-19, 0.0000000E+000
 462.01,-0.40821,-0.0586382, 632.403, 622.735, 23.4117, 22.3293, 0.03487, 24.4461, 2.26723e-19, 0.0000000E+000
 463.51,-0.40821,-0.0586382, 632.481, 622.86, 23.4435, 22.3499, 0.03487, 24.4461, 2.26723e-19, 0.0000000E+000
 465.01,-0.40821,-0.0586382, 632.564, 622.986, 23.4756, 22.3706, 0.03487, 24.4461, 2.26723e-19, 0.0000000E+000
 466.51,-0.40821,-0.0586382, 632.648, 623.108, 23.508, 22.3916, 0.03487, 24.4461, 2.26723e-19, 0.0000000E+000
 468.01,-0.40821,-0.0586382, 632.724, 623.219, 23.5406, 22.4128, 0.03487, 24.4461, 2.26723e-19, 0.0000000E+000
 469.51,-0.40821,-0.0586382, 632.805, 623.338, 23.5735, 22.4342, 0.03487, 24.4461, 2.26723e-19, 0.0000000E+000
 471.01,-0.40821,-0.0586382, 632.887, 623.457, 23.6067, 22.4558, 0.03487, 24.4461, 2.26723e-19, 0.0000000E+000
 472.51,-0.40821,-0.0586382, 632.963, 623.569, 23.6402, 22.4776, 0.03487, 24.4461, 2.26723e-19, 0.0000000E+000
 474.01,-0.40821,-0.0586382, 633.041, 623.683, 23.674, 22.4997, 0.03487, 24.4461, 2.26723e-19, 0.0000000E+000
 475.51,-0.40821,-0.0586382, 633.115, 623.79, 23.7081, 22.5219, 0.03487, 24.4461, 2.26723e-19, 0.0000000E+000
 477.01,-0.40821,-0.0586382, 633.179, 623.898, 23.7425, 22.5444, 0.03487, 24.4461, 2.26723e-19, 0.0000000E+000
 478.51,-0.40821,-0.0586382, 633.254, 624.008, 23.7771, 22.5671, 0.03487, 24.4461, 2.26723e-19, 0.0000000E+000
 480.01,-0.40821,-0.0586382, 633.33, 624.119, 23.812, 22.59, 0.03487, 24.4461, 2.26723e-19, 0.0000000E+000
 481.51,-0.40821,-0.0586382, 633.404, 624.227, 23.8472, 22.6131, 0.03487, 24.4461, 2.26723e-19, 0.0000000E+000
 483.01,-0.40821,-0.0586382, 633.476, 624.333, 23.8827, 22.6364, 0.03487, 24.4461, 2.26723e-19, 0.0000000E+000
 484.51,-0.40821,-0.0586382, 633.542, 624.429, 23.9185, 22.6599, 0.03487, 24.4461, 2.26723e-19, 0.0000000E+000
 486.01,-0.40821,-0.0586382, 633.612, 624.531, 23.9546, 22.6837, 0.03487, 24.4461, 2.26723e-19, 0.0000000E+000
 487.51,-0.40821,-0.0586382, 633.682, 624.634, 23.991, 22.7077, 0.03487, 24.4461, 2.26723e-19, 0.0000000E+000
 489.01,-0.40821,-0.0586382, 633.752, 624.737, 24.0276, 22.7319, 0.03487, 24.4461, 2.26723e-19, 0.0000000E+000
 490.51,-0.40821,-0.0586382, 633.818, 624.833, 24.0645, 22.7563, 0.03487, 24.4461, 2.26723e-19, 0.0000000E+000
 492.01,-0.40821,-0.0586382, 633.877, 624.931, 24.1017, 22.781, 0.03487, 24.4461, 2.26723e-19, 0.0000000E+000
 493.51,-0.40821,-0.0586382, 633.94, 625.025, 24.1392, 22.8059, 0.03487, 24.4461, 2.26723e-19, 0.0000000E+000
 495.01,-0.40821,-0.0586382, 634.008, 625.123, 24.177, 22.831, 0.03487, 24.4461, 2.26723e-19, 0.0000000E+000
 496.51,-0.40821,-0.0586382, 634.072, 625.217, 24.2151, 22.8564, 0.03487, 24.4461, 2.26723e-19, 0.0000000E+000
 498.01,-0.40821,-0.0586382, 634.136, 625.311, 24.2534, 22.8819, 0.03487, 24.4461, 2.26723e-19, 0.0000000E+000
 499.51,-0.40821,-0.0586382, 634.201, 625.406, 24.2921, 22.9077, 0.03487, 24.4461, 2.26723e-19, 0.0000000E+000
 500,-0.40821,-0.0586382, 634.222, 625.437, 24.3049, 22.9163, 0.03487, 24.4461, 2.26723e-19, 0.0000000E+000