File: PMMA/Calibration_Results/NIST_FSRI/All_Props/DBI_2[NIST_FSRI]_Gasification_q50_R3_Mass.csv
s,kg/m2,,C,C,C,C,m,kg/m2,kg/m2,kg/m2/s
Time,"SD","MF","TW1","TSB1","TAL1","TB1","DX1","SD1","SD_11","BR1"
 0.0000000E+000, 6.96199, 1.00007, 20.9, 20.9, 20.9, 20.9, 0.041108, 31.8163, 7.3702, 0.0000000E+000
 1.5, 6.96199, 1.00007, 126.574, 20.9, 20.9, 20.9, 0.041108, 31.8163, 7.3702, 6.21863e-11
 3.01, 6.96199, 1.00007, 174.003, 20.9, 20.9, 20.9, 0.041108, 31.8163, 7.3702, 1.29897e-08
 4.51, 6.96199, 1.00007, 208.547, 20.9, 20.9, 20.9, 0.041108, 31.8163, 7.3702, 3.24645e-07
 6.01, 6.96198, 1.00007, 236.055, 20.9, 20.9, 20.9, 0.041108, 31.8163, 7.37019, 3.04757e-06
 7.51, 6.96197, 1.00007, 259.148, 20.9, 20.9, 20.9, 0.041108, 31.8163, 7.37018, 1.65645e-05
 9.01, 6.9619, 1.00006, 278.964, 20.9001, 20.9, 20.9, 0.0411079, 31.8162, 7.37013, 6.29735e-05
 10.51, 6.9617, 1.00003, 296.288, 20.9006, 20.9, 20.9, 0.0411078, 31.8161, 7.36995, 0.000187137
 12.01, 6.96116, 0.999952, 311.461, 20.9023, 20.9, 20.9, 0.0411074, 31.8156, 7.36949, 0.000460393
 13.51, 6.95999, 0.999783, 324.708, 20.907, 20.9, 20.9, 0.0411065, 31.8146, 7.36844, 0.000973683
 15.01, 6.95773, 0.999459, 336.104, 20.9178, 20.9, 20.9, 0.0411048, 31.8125, 7.36639, 0.00180941
 16.51, 6.95387, 0.998904, 345.672, 20.9391, 20.9, 20.9, 0.0411018, 31.8089, 7.36282, 0.00299712
 18, 6.94791, 0.998048, 353.466, 20.9766, 20.9, 20.9, 0.041097, 31.8034, 7.35724, 0.00448141
 19.5, 6.93952, 0.996843, 359.677, 21.0374, 20.9, 20.9, 0.0410903, 31.7954, 7.3493, 0.00614862
 21, 6.92856, 0.995268, 364.552, 21.1294, 20.9, 20.9, 0.0410814, 31.7849, 7.33876, 0.00786867
 22.5, 6.91507, 0.99333, 368.336, 21.261, 20.9, 20.9, 0.0410703, 31.7718, 7.32569, 0.00952869
 24, 6.89921, 0.991052, 371.281, 21.4406, 20.9, 20.9, 0.0410572, 31.7563, 7.31021, 0.0110677
 25.5, 6.88118, 0.988462, 373.596, 21.6764, 20.9, 20.9, 0.0410423, 31.7386, 7.29253, 0.0124616
 27, 6.86121, 0.985594, 375.439, 21.9764, 20.9, 20.9, 0.0410256, 31.719, 7.27287, 0.0137099
 28.5, 6.83951, 0.982476, 376.929, 22.3474, 20.9, 20.9, 0.0410075, 31.6976, 7.25144, 0.0148252
 30, 6.81625, 0.979135, 378.15, 22.7959, 20.9, 20.9, 0.040988, 31.6746, 7.22843, 0.0158213
 31.5, 6.7916, 0.975595, 379.168, 23.3269, 20.9, 20.9, 0.0409673, 31.6501, 7.20401, 0.0167165
 33, 6.76571, 0.971875, 380.024, 23.9447, 20.9, 20.9, 0.0409456, 31.6244, 7.17831, 0.0175225
 34.5, 6.73868, 0.967992, 380.751, 24.6523, 20.9, 20.9, 0.0409229, 31.5976, 7.15146, 0.0182508
 36, 6.71062, 0.963962, 381.377, 25.4519, 20.9, 20.9, 0.0408993, 31.5697, 7.12357, 0.0189152
 37.5, 6.68163, 0.959797, 381.924, 26.3445, 20.9, 20.9, 0.0408748, 31.5408, 7.09473, 0.0195245
 39, 6.65178, 0.955509, 382.396, 27.3306, 20.9, 20.9, 0.0408497, 31.5111, 7.06502, 0.0200798
 40.5, 6.62113, 0.951107, 382.813, 28.4099, 20.9, 20.9, 0.0408239, 31.4806, 7.0345, 0.0205945
 42, 6.58976, 0.9466, 383.183, 29.5817, 20.9, 20.9, 0.0407974, 31.4494, 7.00324, 0.0210708
 43.51, 6.5577, 0.941995, 383.508, 30.849, 20.9, 20.9, 0.0407703, 31.4173, 6.97119, 0.0215126
 45.01, 6.52502, 0.937301, 383.799, 32.2071, 20.9, 20.9, 0.0407426, 31.3846, 6.9385, 0.0219235
 46.51, 6.49174, 0.93252, 384.063, 33.6498, 20.9, 20.9, 0.0407145, 31.3514, 6.90531, 0.0223117
 48.01, 6.45792, 0.927662, 384.291, 35.1827, 20.9, 20.9, 0.040686, 31.3177, 6.87157, 0.0226666
 49.51, 6.42357, 0.922728, 384.509, 36.8133, 20.9, 20.9, 0.040657, 31.2834, 6.83731, 0.0230112
 51.01, 6.38873, 0.917724, 384.697, 38.5422, 20.9, 20.9, 0.0406276, 31.2487, 6.80255, 0.0233294
 52.51, 6.35344, 0.912654, 384.863, 40.354, 20.9, 20.9, 0.0405977, 31.2134, 6.76733, 0.0236256
 54.01, 6.31771, 0.907522, 385.026, 42.2241, 20.9, 20.9, 0.0405676, 31.1778, 6.73167, 0.0239176
 55.51, 6.28156, 0.902329, 385.168, 44.1425, 20.9, 20.9, 0.040537, 31.1417, 6.69558, 0.0241897
 57.01, 6.24502, 0.89708, 385.291, 46.1081, 20.9, 20.9, 0.0405061, 31.1052, 6.6591, 0.024443
 58.51, 6.20811, 0.891778, 385.404, 48.1189, 20.9, 20.9, 0.040475, 31.0684, 6.62225, 0.0246855
 60.01, 6.17084, 0.886423, 385.524, 50.1728, 20.9, 20.9, 0.0404435, 31.0312, 6.58503, 0.0249322
 61.51, 6.13321, 0.881018, 385.62, 52.2672, 20.9, 20.9, 0.0404117, 30.9936, 6.54746, 0.0251579
 63.01, 6.09526, 0.875567, 385.705, 54.4009, 20.9, 20.9, 0.0403796, 30.9557, 6.50956, 0.0253706
 64.51, 6.057, 0.870071, 385.784, 56.5722, 20.9, 20.9, 0.0403472, 30.9175, 6.47135, 0.0255772
 66.01, 6.01842, 0.864529, 385.873, 58.7815, 20.9, 20.9, 0.0403146, 30.8789, 6.43282, 0.0257911
 67.51, 5.97953, 0.858943, 385.943, 61.0289, 20.9, 20.9, 0.0402817, 30.8401, 6.39398, 0.0259889
 69.01, 5.94036, 0.853316, 386.004, 63.3121, 20.9, 20.9, 0.0402486, 30.801, 6.35485, 0.0261761
 70.51, 5.90091, 0.847649, 386.061, 65.6285, 20.9, 20.9, 0.0402153, 30.7616, 6.31545, 0.0263594
 72.01, 5.86119, 0.841944, 386.12, 67.9761, 20.9, 20.9, 0.0401817, 30.7219, 6.27577, 0.0265426
 73.5, 5.82119, 0.836197, 386.181, 70.3376, 20.9, 20.9, 0.0401481, 30.6822, 6.23608, 0.0267297
 75, 5.78091, 0.830412, 386.228, 72.7434, 20.9, 20.9, 0.0401141, 30.642, 6.19585, 0.0269035
 76.5, 5.74039, 0.824591, 386.27, 75.1764, 20.9, 20.9, 0.0400798, 30.6015, 6.15537, 0.0270713
 78, 5.69961, 0.818733, 386.311, 77.6358, 20.9, 20.9, 0.0400453, 30.5608, 6.11463, 0.0272393
 79.5, 5.65858, 0.81284, 386.357, 80.1206, 20.9, 20.9, 0.0400106, 30.5198, 6.07365, 0.0274101
 81, 5.61729, 0.806908, 386.404, 82.6302, 20.9, 20.9, 0.0399757, 30.4785, 6.0324, 0.0275862
 82.5, 5.57574, 0.80094, 386.439, 85.1641, 20.9, 20.9, 0.0399406, 30.437, 5.99089, 0.0277491
 84, 5.53396, 0.794938, 386.471, 87.7218, 20.9, 20.9, 0.0399053, 30.3953, 5.94915, 0.0279092
 85.5, 5.49193, 0.788901, 386.503, 90.3032, 20.9, 20.9, 0.0398697, 30.3533, 5.90716, 0.0280708
 87, 5.44966, 0.782829, 386.537, 92.9085, 20.9, 20.9, 0.039834, 30.3111, 5.86493, 0.0282334
 88.5, 5.40713, 0.776719, 386.581, 95.5381, 20.9, 20.9, 0.039798, 30.2686, 5.82245, 0.0284099
 90, 5.36435, 0.770574, 386.609, 98.1932, 20.9, 20.9, 0.0397618, 30.2258, 5.77971, 0.028571
 91.5, 5.32134, 0.764395, 386.636, 100.876, 20.9, 20.9, 0.0397255, 30.1829, 5.73673, 0.0287311
 93, 5.27808, 0.758181, 386.663, 103.592, 20.9, 20.9, 0.0396889, 30.1396, 5.69351, 0.0288931
 94.5, 5.23457, 0.751932, 386.69, 106.338, 20.9, 20.9, 0.0396521, 30.0962, 5.65005, 0.0290543
 96, 5.1908, 0.745644, 386.734, 109.113, 20.9, 20.9, 0.0396151, 30.0524, 5.60633, 0.0292371
 97.5, 5.14678, 0.739321, 386.76, 111.913, 20.9, 20.9, 0.0395779, 30.0085, 5.56234, 0.0294026
 99, 5.10251, 0.732961, 386.785, 114.738, 20.9, 20.9, 0.0395404, 29.9642, 5.51811, 0.0295684
 100.5, 5.05799, 0.726566, 386.811, 117.585, 20.9, 20.9, 0.0395028, 29.9198, 5.47363, 0.0297362
 102, 5.01322, 0.720134, 386.834, 120.454, 20.9, 20.9, 0.0394649, 29.875, 5.4289, 0.0299031
 103.5, 4.96816, 0.713663, 386.879, 123.342, 20.9, 20.9, 0.0394268, 29.83, 5.3839, 0.0300954
 105, 4.92284, 0.707153, 386.905, 126.247, 20.9001, 20.9, 0.0393885, 29.7847, 5.33862, 0.0302699
 106.5, 4.87726, 0.700605, 386.931, 129.168, 20.9001, 20.9, 0.03935, 29.7392, 5.29309, 0.0304465
 108, 4.83141, 0.694019, 386.956, 132.101, 20.9001, 20.9, 0.0393112, 29.6934, 5.24728, 0.0306241
 109.5, 4.7853, 0.687394, 386.983, 135.043, 20.9001, 20.9, 0.0392722, 29.6473, 5.20121, 0.0308043
 111, 4.73888, 0.680727, 387.027, 137.99, 20.9001, 20.9, 0.039233, 29.601, 5.15484, 0.0310078
 112.5, 4.69218, 0.674018, 387.053, 140.935, 20.9001, 20.9, 0.0391935, 29.5543, 5.10819, 0.0311944
 114, 4.64519, 0.667269, 387.081, 143.868, 20.9002, 20.9, 0.0391538, 29.5074, 5.06125, 0.0313858
 115.5, 4.59792, 0.660479, 387.107, 146.794, 20.9002, 20.9, 0.0391138, 29.4601, 5.01403, 0.0315761
 117, 4.55036, 0.653646, 387.144, 149.715, 20.9002, 20.9, 0.0390736, 29.4126, 4.96652, 0.0317806
 118.5, 4.50247, 0.646768, 387.181, 152.632, 20.9002, 20.9, 0.0390331, 29.3648, 4.91868, 0.0319905
 120, 4.45428, 0.639845, 387.208, 155.548, 20.9003, 20.9, 0.0389923, 29.3167, 4.87054, 0.0321917
 121.5, 4.40579, 0.632879, 387.238, 158.463, 20.9003, 20.9, 0.0389513, 29.2682, 4.8221, 0.0323985
 123, 4.35698, 0.625868, 387.263, 161.377, 20.9004, 20.9, 0.0389101, 29.2195, 4.77335, 0.0326027
 124.5, 4.30785, 0.618811, 387.31, 164.291, 20.9004, 20.9001, 0.0388685, 29.1704, 4.72427, 0.032833
 126, 4.25838, 0.611704, 387.34, 167.205, 20.9005, 20.9001, 0.0388267, 29.121, 4.67486, 0.0330494
 127.5, 4.20859, 0.604552, 387.369, 170.119, 20.9006, 20.9001, 0.0387846, 29.0712, 4.62512, 0.0332678
 129, 4.15846, 0.597352, 387.397, 173.033, 20.9006, 20.9001, 0.0387422, 29.0212, 4.57505, 0.0334867
 130.5, 4.10801, 0.590104, 387.429, 175.948, 20.9007, 20.9001, 0.0386996, 28.9708, 4.52465, 0.0337122
 132, 4.05719, 0.582804, 387.473, 178.863, 20.9008, 20.9001, 0.0386566, 28.92, 4.47389, 0.033956
 133.5, 4.00603, 0.575454, 387.5, 181.778, 20.9009, 20.9001, 0.0386134, 28.8689, 4.42279, 0.0341851
 135, 3.95451, 0.568054, 387.53, 184.692, 20.9011, 20.9001, 0.0385698, 28.8174, 4.37133, 0.0344198
 136.5, 3.90264, 0.560604, 387.556, 187.607, 20.9012, 20.9002, 0.038526, 28.7656, 4.31952, 0.0346529
 138, 3.8504, 0.5531, 387.603, 190.521, 20.9013, 20.9002, 0.0384818, 28.7135, 4.26735, 0.034914
 139.5, 3.79779, 0.545541, 387.632, 193.434, 20.9015, 20.9002, 0.0384373, 28.6609, 4.21479, 0.035158
 141, 3.7448, 0.537929, 387.662, 196.346, 20.9017, 20.9002, 0.0383925, 28.608, 4.16186, 0.035409
 142.5, 3.69143, 0.530264, 387.689, 199.256, 20.9018, 20.9003, 0.0383474, 28.5547, 4.10856, 0.035658
 144, 3.63768, 0.522542, 387.732, 202.164, 20.902, 20.9003, 0.038302, 28.501, 4.05488, 0.0359281
 145.5, 3.58352, 0.514762, 387.764, 205.069, 20.9023, 20.9003, 0.0382562, 28.4469, 4.00078, 0.0361943
 147, 3.52896, 0.506925, 387.793, 207.97, 20.9025, 20.9004, 0.0382101, 28.3924, 3.94629, 0.0364603
 148.5, 3.474, 0.49903, 387.82, 210.866, 20.9028, 20.9004, 0.0381636, 28.3375, 3.89139, 0.036727
 150, 3.41863, 0.491076, 387.859, 213.758, 20.903, 20.9005, 0.0381168, 28.2822, 3.8361, 0.0370097
 151.5, 3.36282, 0.483059, 387.896, 216.643, 20.9033, 20.9005, 0.0380696, 28.2265, 3.78036, 0.0373001
 153, 3.30658, 0.474981, 387.924, 219.52, 20.9037, 20.9006, 0.0380221, 28.1703, 3.72419, 0.0375825
 154.5, 3.24992, 0.466841, 387.952, 222.389, 20.904, 20.9007, 0.0379742, 28.1137, 3.6676, 0.0378716
 156, 3.19281, 0.458639, 387.987, 225.249, 20.9044, 20.9007, 0.0379259, 28.0567, 3.61057, 0.0381689
 157.5, 3.13524, 0.450368, 388.027, 228.097, 20.9048, 20.9008, 0.0378773, 27.9992, 3.55307, 0.0384815
 159, 3.07721, 0.442033, 388.055, 230.933, 20.9052, 20.9009, 0.0378282, 27.9412, 3.49512, 0.0387853
 160.51, 3.01872, 0.433631, 388.084, 233.773, 20.9057, 20.901, 0.0377784, 27.8824, 3.43632, 0.0390971
 162.01, 2.95976, 0.425162, 388.12, 236.579, 20.9062, 20.9011, 0.0377286, 27.8236, 3.37744, 0.0394156
 163.51, 2.9003, 0.41662, 388.158, 239.368, 20.9067, 20.9012, 0.0376783, 27.7642, 3.31806, 0.0397468
 165.01, 2.84036, 0.40801, 388.187, 242.138, 20.9072, 20.9013, 0.0376277, 27.7043, 3.25819, 0.0400703
 166.51, 2.77993, 0.399329, 388.214, 244.888, 20.9078, 20.9014, 0.0375766, 27.644, 3.19784, 0.0403961
 168.01, 2.719, 0.390577, 388.255, 247.615, 20.9085, 20.9016, 0.0375251, 27.5831, 3.13699, 0.0407383
 169.51, 2.65755, 0.38175, 388.288, 250.319, 20.9091, 20.9017, 0.0374732, 27.5217, 3.07562, 0.0410799
 171.01, 2.59559, 0.37285, 388.317, 252.997, 20.9098, 20.9019, 0.0374208, 27.4599, 3.01375, 0.0414193
 172.51, 2.53313, 0.363877, 388.342, 255.648, 20.9106, 20.9021, 0.037368, 27.3975, 2.95136, 0.0417546
 174.01, 2.47014, 0.354829, 388.387, 258.272, 20.9114, 20.9022, 0.0373147, 27.3346, 2.88846, 0.0421133
 175.51, 2.40663, 0.345706, 388.415, 260.866, 20.9122, 20.9024, 0.0372611, 27.2712, 2.82503, 0.0424554
 177.01, 2.3426, 0.336508, 388.444, 263.43, 20.9131, 20.9026, 0.0372069, 27.2072, 2.76109, 0.0427995
 178.51, 2.27807, 0.327238, 388.468, 265.965, 20.914, 20.9029, 0.0371524, 27.1428, 2.69664, 0.0431334
 180.01, 2.21301, 0.317892, 388.513, 268.47, 20.915, 20.9031, 0.0370974, 27.0778, 2.63166, 0.0434913
 181.51, 2.14743, 0.308473, 388.541, 270.945, 20.916, 20.9033, 0.037042, 27.0123, 2.56617, 0.0438261
 183.01, 2.08136, 0.298982, 388.568, 273.392, 20.9171, 20.9036, 0.0369861, 26.9463, 2.50017, 0.044156
 184.51, 2.0148, 0.28942, 388.609, 275.807, 20.9182, 20.9039, 0.0369298, 26.8798, 2.43369, 0.0444924
 186.01, 1.94774, 0.279787, 388.638, 278.19, 20.9194, 20.9042, 0.0368731, 26.8128, 2.3667, 0.0448119
 187.51, 1.8802, 0.270086, 388.669, 280.551, 20.9206, 20.9045, 0.036816, 26.7454, 2.29925, 0.0451255
 189.01, 1.81221, 0.26032, 388.697, 282.894, 20.9219, 20.9049, 0.0367586, 26.6775, 2.23133, 0.0454232
 190.51, 1.74377, 0.250487, 388.743, 285.225, 20.9233, 20.9052, 0.0367007, 26.6091, 2.16296, 0.0457318
 192.01, 1.67489, 0.240593, 388.777, 287.547, 20.9247, 20.9056, 0.0366424, 26.5403, 2.09414, 0.0460164
 193.51, 1.60559, 0.230639, 388.807, 289.868, 20.9262, 20.906, 0.0365838, 26.471, 2.02491, 0.0462841
 195.01, 1.53589, 0.220626, 388.858, 292.194, 20.9277, 20.9064, 0.0365249, 26.4014, 1.95528, 0.0465618
 196.51, 1.46578, 0.210556, 388.901, 294.531, 20.9294, 20.9069, 0.0364656, 26.3314, 1.88523, 0.0468203
 198.01, 1.3953, 0.200432, 388.943, 296.887, 20.9311, 20.9073, 0.036406, 26.2609, 1.81481, 0.0470655
 199.51, 1.32446, 0.190255, 389.005, 299.271, 20.9328, 20.9078, 0.0363461, 26.1901, 1.74403, 0.0473157
 201.01, 1.25325, 0.180025, 389.065, 301.686, 20.9346, 20.9084, 0.0362859, 26.119, 1.67287, 0.0475533
 202.51, 1.18169, 0.169747, 389.126, 304.144, 20.9365, 20.9089, 0.0362254, 26.0475, 1.60137, 0.0477747
 204.01, 1.10981, 0.159421, 389.21, 306.656, 20.9385, 20.9095, 0.0361646, 25.9757, 1.52954, 0.0480023
 205.51, 1.03759, 0.149047, 389.297, 309.233, 20.9406, 20.9101, 0.0361035, 25.9035, 1.45737, 0.0482183
 207.01, 0.965054, 0.138627, 389.394, 311.887, 20.9427, 20.9107, 0.0360421, 25.831, 1.38489, 0.0484246
 208.51, 0.892206, 0.128163, 389.515, 314.632, 20.9449, 20.9114, 0.0359805, 25.7582, 1.31209, 0.0486353
 210.01, 0.819048, 0.117654, 389.65, 317.481, 20.9472, 20.9121, 0.0359187, 25.6851, 1.23898, 0.048837
 211.51, 0.745591, 0.107102, 389.816, 320.45, 20.9496, 20.9128, 0.0358565, 25.6117, 1.16557, 0.0490404
 213.01, 0.67183, 0.0965065, 390.008, 323.559, 20.9521, 20.9136, 0.0357941, 25.538, 1.09186, 0.0492399
 214.51, 0.597779, 0.0858693, 390.239, 326.826, 20.9547, 20.9144, 0.0357315, 25.464, 1.01786, 0.049434
 216.01, 0.523438, 0.0751903, 390.515, 330.275, 20.9573, 20.9152, 0.0356686, 25.3897, 0.94356, 0.0496234
 217.51, 0.44882, 0.0644718, 390.856, 333.936, 20.96, 20.9161, 0.0356055, 25.3151, 0.868987, 0.0498079
 219.01, 0.373939, 0.0537154, 391.267, 337.847, 20.9629, 20.917, 0.0355422, 25.2403, 0.794146, 0.0499757
 220.51, 0.298812, 0.0429235, 391.787, 342.053, 20.9658, 20.918, 0.0354786, 25.1652, 0.719056, 0.0501356
 222.01, 0.223465, 0.0321001, 392.447, 346.613, 20.9688, 20.919, 0.0354149, 25.0899, 0.643743, 0.0502764
 223.51, 0.147938, 0.0212509, 393.295, 351.607, 20.9719, 20.92, 0.0353509, 25.0144, 0.568242, 0.0503845
 225.01, 0.072289, 0.0103841, 394.42, 357.141, 20.9752, 20.9211, 0.0352869, 24.9387, 0.492607, 0.0504499
 226.51,-0.00338901,-0.000486822, 395.945, 363.373, 20.9785, 20.9222, 0.0352229, 24.863, 0.416927, 0.0504429
 228.01,-0.0789456,-0.0113403, 398.089, 370.542, 20.9819, 20.9234, 0.0351589, 24.7875, 0.341338, 0.0503183
 229.51,-0.154142,-0.0221421, 401.276, 379.078, 20.9854, 20.9246, 0.0350952, 24.7122, 0.26607, 0.0500269
 231.01,-0.228578,-0.0328347, 406.26, 389.808, 20.9891, 20.9258, 0.0350321, 24.6376, 0.191462, 0.0493495
 232.51,-0.301168,-0.0432619, 414.918, 404.502, 20.9928, 20.9271, 0.0349703, 24.5646, 0.118473, 0.0477653
 234.01,-0.368872,-0.0529874, 433.592, 429.314, 20.9966, 20.9285, 0.034912, 24.4957, 0.0495857, 0.0431825
 235.51,-0.40821,-0.0586382, 513.015, 465.911, 21.0006, 20.9299, 0.0348707, 24.4469, 0.000795458, 0.00629243
 237.01,-0.40821,-0.0586382, 550.401, 498.789, 21.0047, 20.9314, 0.03487, 24.4461, 1.27579e-12, 2.76564e-15
 238.51,-0.40821,-0.0586382, 565.623, 521.911, 21.0089, 20.9329, 0.03487, 24.4461, 1.2698e-12, 5.17036e-15
 240.01,-0.40821,-0.0586382, 574.874, 535.909, 21.0132, 20.9344, 0.03487, 24.4461, 1.26034e-12, 7.3737e-15
 241.51,-0.40821,-0.0586382, 581.254, 545.679, 21.0176, 20.9361, 0.03487, 24.4461, 1.24777e-12, 9.31743e-15
 243.01,-0.40821,-0.0586382, 586.06, 553.049, 21.0221, 20.9377, 0.03487, 24.4461, 1.23248e-12, 1.10032e-14
 244.51,-0.40821,-0.0586382, 589.884, 558.887, 21.0268, 20.9395, 0.03487, 24.4461, 1.21485e-12, 1.24481e-14
 246.01,-0.40821,-0.0586382, 593.025, 563.673, 21.0315, 20.9413, 0.03487, 24.4461, 1.19522e-12, 1.36722e-14
 247.51,-0.40821,-0.0586382, 595.677, 567.697, 21.0364, 20.9431, 0.03487, 24.4461, 1.17391e-12, 1.46965e-14
 249.01,-0.40821,-0.0586382, 597.955, 571.149, 21.0415, 20.945, 0.03487, 24.4461, 1.1512e-12, 1.55413e-14
 250.51,-0.40821,-0.0586382, 599.94, 574.156, 21.0466, 20.947, 0.03487, 24.4461, 1.12735e-12, 1.6225e-14
 252.01,-0.40821,-0.0586382, 601.696, 576.808, 21.0519, 20.9491, 0.03487, 24.4461, 1.10258e-12, 1.67638e-14
 253.51,-0.40821,-0.0586382, 603.259, 579.172, 21.0573, 20.9512, 0.03487, 24.4461, 1.07711e-12, 1.71736e-14
 255.01,-0.40821,-0.0586382, 604.671, 581.301, 21.0628, 20.9533, 0.03487, 24.4461, 1.05111e-12, 1.74695e-14
 256.51,-0.40821,-0.0586382, 605.952, 583.233, 21.0685, 20.9556, 0.03487, 24.4461, 1.02475e-12, 1.76643e-14
 258.01,-0.40821,-0.0586382, 607.121, 584.991, 21.0742, 20.9579, 0.03487, 24.4461, 9.98163e-13, 1.77671e-14
 259.51,-0.40821,-0.0586382, 608.193, 586.592, 21.0802, 20.9603, 0.03487, 24.4461, 9.71489e-13, 1.77855e-14
 261.01,-0.40821,-0.0586382, 609.164, 588.068, 21.0862, 20.9627, 0.03487, 24.4461, 9.44842e-13, 1.77348e-14
 262.51,-0.40821,-0.0586382, 610.083, 589.438, 21.0924, 20.9652, 0.03487, 24.4461, 9.18316e-13, 1.76248e-14
 264.01,-0.40821,-0.0586382, 610.937, 590.715, 21.0988, 20.9678, 0.03487, 24.4461, 8.91995e-13, 1.74638e-14
 265.51,-0.40821,-0.0586382, 611.726, 591.909, 21.1052, 20.9705, 0.03487, 24.4461, 8.65951e-13, 1.72582e-14
 267.01,-0.40821,-0.0586382, 612.467, 593.027, 21.1118, 20.9733, 0.03487, 24.4461, 8.40245e-13, 1.70141e-14
 268.51,-0.40821,-0.0586382, 613.169, 594.079, 21.1186, 20.9761, 0.03487, 24.4461, 8.1493e-13, 1.67376e-14
 270.01,-0.40821,-0.0586382, 613.832, 595.073, 21.1255, 20.979, 0.03487, 24.4461, 7.9005e-13, 1.64349e-14
 271.51,-0.40821,-0.0586382, 614.458, 596.012, 21.1325, 20.982, 0.03487, 24.4461, 7.65643e-13, 1.6109e-14
 273.01,-0.40821,-0.0586382, 615.057, 596.902, 21.1397, 20.985, 0.03487, 24.4461, 7.41739e-13, 1.57651e-14
 274.51,-0.40821,-0.0586382, 615.629, 597.746, 21.147, 20.9882, 0.03487, 24.4461, 7.18363e-13, 1.54061e-14
 276.01,-0.40821,-0.0586382, 616.165, 598.552, 21.1545, 20.9914, 0.03487, 24.4461, 6.95533e-13, 1.50368e-14
 277.51,-0.40821,-0.0586382, 616.671, 599.315, 21.1621, 20.9947, 0.03487, 24.4461, 6.73266e-13, 1.46577e-14
 279.01,-0.40821,-0.0586382, 617.154, 600.045, 21.1699, 20.9981, 0.03487, 24.4461, 6.5157e-13, 1.42732e-14
 280.51,-0.40821,-0.0586382, 617.636, 600.747, 21.1778, 21.0016, 0.03487, 24.4461, 6.30454e-13, 1.38862e-14
 282.01,-0.40821,-0.0586382, 618.078, 601.417, 21.1859, 21.0052, 0.03487, 24.4461, 6.0992e-13, 1.34972e-14
 283.51,-0.40821,-0.0586382, 618.502, 602.059, 21.1941, 21.0088, 0.03487, 24.4461, 5.8997e-13, 1.31084e-14
 285.01,-0.40821,-0.0586382, 618.926, 602.677, 21.2025, 21.0126, 0.03487, 24.4461, 5.70602e-13, 1.27218e-14
 286.51,-0.40821,-0.0586382, 619.315, 603.269, 21.211, 21.0164, 0.03487, 24.4461, 5.51812e-13, 1.23377e-14
 288.01,-0.40821,-0.0586382, 619.7, 603.839, 21.2197, 21.0204, 0.03487, 24.4461, 5.33595e-13, 1.19579e-14
 289.51,-0.40821,-0.0586382, 620.065, 604.385, 21.2285, 21.0244, 0.03487, 24.4461, 5.15945e-13, 1.15829e-14
 291.01,-0.40821,-0.0586382, 620.413, 604.91, 21.2375, 21.0285, 0.03487, 24.4461, 4.98851e-13, 1.12133e-14
 292.51,-0.40821,-0.0586382, 620.757, 605.417, 21.2467, 21.0328, 0.03487, 24.4461, 4.82308e-13, 1.08506e-14
 294.01,-0.40821,-0.0586382, 621.079, 605.906, 21.256, 21.0371, 0.03487, 24.4461, 4.66302e-13, 1.04952e-14
 295.51,-0.40821,-0.0586382, 621.404, 606.383, 21.2656, 21.0415, 0.03487, 24.4461, 4.50824e-13, 1.01485e-14
 297.01,-0.40821,-0.0586382, 621.712, 606.84, 21.2752, 21.046, 0.03487, 24.4461, 4.35861e-13, 9.80905e-15
 298.51,-0.40821,-0.0586382, 622.005, 607.282, 21.2851, 21.0506, 0.03487, 24.4461, 4.214e-13, 9.47774e-15
 300.01,-0.40821,-0.0586382, 622.3, 607.712, 21.2951, 21.0554, 0.03487, 24.4461, 4.07429e-13, 9.15569e-15
 301.51,-0.40821,-0.0586382, 622.573, 608.132, 21.3053, 21.0602, 0.03487, 24.4461, 3.93934e-13, 8.84298e-15
 303.01,-0.40821,-0.0586382, 622.85, 608.536, 21.3156, 21.0651, 0.03487, 24.4461, 3.80903e-13, 8.53826e-15
 304.51,-0.40821,-0.0586382, 623.103, 608.927, 21.3262, 21.0702, 0.03487, 24.4461, 3.68321e-13, 8.24228e-15
 306.01,-0.40821,-0.0586382, 623.37, 609.315, 21.3369, 21.0753, 0.03487, 24.4461, 3.56176e-13, 7.95667e-15
 307.51,-0.40821,-0.0586382, 623.622, 609.684, 21.3478, 21.0806, 0.03487, 24.4461, 3.44454e-13, 7.67831e-15
 309.01,-0.40821,-0.0586382, 623.856, 610.044, 21.3589, 21.0859, 0.03487, 24.4461, 3.33141e-13, 7.40915e-15
 310.51,-0.40821,-0.0586382, 624.1, 610.401, 21.3702, 21.0914, 0.03487, 24.4461, 3.22226e-13, 7.14933e-15
 312.01,-0.40821,-0.0586382, 624.333, 610.74, 21.3818, 21.097, 0.03487, 24.4461, 3.11695e-13, 6.89695e-15
 313.51,-0.40821,-0.0586382, 624.55, 611.078, 21.3935, 21.1027, 0.03487, 24.4461, 3.01536e-13, 6.6539e-15
 315.01,-0.40821,-0.0586382, 624.772, 611.401, 21.4054, 21.1086, 0.03487, 24.4461, 2.91735e-13, 6.41823e-15
 316.51,-0.40821,-0.0586382, 624.993, 611.725, 21.4175, 21.1145, 0.03487, 24.4461, 2.82281e-13, 6.19172e-15
 318.01,-0.40821,-0.0586382, 625.189, 612.029, 21.4298, 21.1206, 0.03487, 24.4461, 2.73162e-13, 5.97158e-15
 319.51,-0.40821,-0.0586382, 625.4, 612.338, 21.4423, 21.1268, 0.03487, 24.4461, 2.64366e-13, 5.76052e-15
 321.01,-0.40821,-0.0586382, 625.6, 612.63, 21.4551, 21.1331, 0.03487, 24.4461, 2.55881e-13, 5.55575e-15
 322.51,-0.40821,-0.0586382, 625.788, 612.923, 21.4681, 21.1395, 0.03487, 24.4461, 2.47698e-13, 5.35922e-15
 324.01,-0.40821,-0.0586382, 625.979, 613.202, 21.4813, 21.1461, 0.03487, 24.4461, 2.39805e-13, 5.16875e-15
 325.51,-0.40821,-0.0586382, 626.172, 613.484, 21.4947, 21.1528, 0.03487, 24.4461, 2.32192e-13, 4.9862e-15
 327.01,-0.40821,-0.0586382, 626.354, 613.75, 21.5084, 21.1596, 0.03487, 24.4461, 2.24848e-13, 4.80921e-15
 328.51,-0.40821,-0.0586382, 626.524, 614.016, 21.5223, 21.1666, 0.03487, 24.4461, 2.17764e-13, 4.63929e-15
 330.01,-0.40821,-0.0586382, 626.7, 614.273, 21.5365, 21.1737, 0.03487, 24.4461, 2.1093e-13, 4.47526e-15
 331.51,-0.40821,-0.0586382, 626.876, 614.53, 21.5509, 21.1809, 0.03487, 24.4461, 2.04338e-13, 4.31772e-15
 333.01,-0.40821,-0.0586382, 627.046, 614.778, 21.5655, 21.1883, 0.03487, 24.4461, 1.97977e-13, 4.16564e-15
 334.51,-0.40821,-0.0586382, 627.199, 615.02, 21.5804, 21.1958, 0.03487, 24.4461, 1.91841e-13, 4.01903e-15
 336.01,-0.40821,-0.0586382, 627.365, 615.262, 21.5956, 21.2035, 0.03487, 24.4461, 1.8592e-13, 3.87835e-15
 337.51,-0.40821,-0.0586382, 627.522, 615.491, 21.611, 21.2113, 0.03487, 24.4461, 1.80207e-13, 3.74221e-15
 339.01,-0.40821,-0.0586382, 627.679, 615.721, 21.6267, 21.2193, 0.03487, 24.4461, 1.74694e-13, 3.61151e-15
 340.51,-0.40821,-0.0586382, 627.821, 615.945, 21.6427, 21.2274, 0.03487, 24.4461, 1.69372e-13, 3.48566e-15
 342.01,-0.40821,-0.0586382, 627.969, 616.162, 21.6589, 21.2356, 0.03487, 24.4461, 1.64237e-13, 3.36419e-15
 343.51,-0.40821,-0.0586382, 628.119, 616.381, 21.6754, 21.2441, 0.03487, 24.4461, 1.5928e-13, 3.24779e-15
 345.01,-0.40821,-0.0586382, 628.262, 616.59, 21.6922, 21.2526, 0.03487, 24.4461, 1.54494e-13, 3.13529e-15
 346.51,-0.40821,-0.0586382, 628.403, 616.796, 21.7093, 21.2614, 0.03487, 24.4461, 1.49874e-13, 3.02702e-15
 348.01,-0.40821,-0.0586382, 628.533, 617.003, 21.7266, 21.2703, 0.03487, 24.4461, 1.45413e-13, 2.9231e-15
 349.51,-0.40821,-0.0586382, 628.669, 617.201, 21.7443, 21.2793, 0.03487, 24.4461, 1.41105e-13, 2.82281e-15
 351.01,-0.40821,-0.0586382, 628.804, 617.398, 21.7622, 21.2886, 0.03487, 24.4461, 1.36944e-13, 2.72634e-15
 352.51,-0.40821,-0.0586382, 628.939, 617.595, 21.7804, 21.298, 0.03487, 24.4461, 1.32926e-13, 2.6337e-15
 354.01,-0.40821,-0.0586382, 629.066, 617.782, 21.7989, 21.3075, 0.03487, 24.4461, 1.29043e-13, 2.54409e-15
 355.51,-0.40821,-0.0586382, 629.182, 617.968, 21.8178, 21.3173, 0.03487, 24.4461, 1.25293e-13, 2.45798e-15
 357.01,-0.40821,-0.0586382, 629.31, 618.154, 21.8369, 21.3272, 0.03487, 24.4461, 1.21669e-13, 2.37525e-15
 358.51,-0.40821,-0.0586382, 629.437, 618.339, 21.8563, 21.3373, 0.03487, 24.4461, 1.18167e-13, 2.29566e-15
 360.01,-0.40821,-0.0586382, 629.554, 618.51, 21.8761, 21.3476, 0.03487, 24.4461, 1.14783e-13, 2.21849e-15
 361.51,-0.40821,-0.0586382, 629.676, 618.688, 21.8961, 21.358, 0.03487, 24.4461, 1.11512e-13, 2.14464e-15
 363.01,-0.40821,-0.0586382, 629.788, 618.863, 21.9165, 21.3687, 0.03487, 24.4461, 1.08349e-13, 2.07349e-15
 364.51,-0.40821,-0.0586382, 629.896, 619.027, 21.9371, 21.3795, 0.03487, 24.4461, 1.05292e-13, 2.00462e-15
 366.01,-0.40821,-0.0586382, 630.013, 619.198, 21.9581, 21.3905, 0.03487, 24.4461, 1.02335e-13, 1.93868e-15
 367.51,-0.40821,-0.0586382, 630.127, 619.364, 21.9794, 21.4018, 0.03487, 24.4461, 9.94758e-14, 1.87506e-15
 369.01,-0.40821,-0.0586382, 630.239, 619.528, 22.001, 21.4132, 0.03487, 24.4461, 9.671e-14, 1.81381e-15
 370.51,-0.40821,-0.0586382, 630.345, 619.682, 22.023, 21.4248, 0.03487, 24.4461, 9.40347e-14, 1.7545e-15
 372.01,-0.40821,-0.0586382, 630.45, 619.839, 22.0452, 21.4366, 0.03487, 24.4461, 9.14465e-14, 1.69753e-15
 373.51,-0.40821,-0.0586382, 630.55, 619.998, 22.0678, 21.4486, 0.03487, 24.4461, 8.89421e-14, 1.6428e-15
 375.01,-0.40821,-0.0586382, 630.655, 620.151, 22.0907, 21.4608, 0.03487, 24.4461, 8.65182e-14, 1.58993e-15
 376.51,-0.40821,-0.0586382, 630.756, 620.298, 22.114, 21.4733, 0.03487, 24.4461, 8.41725e-14, 1.53882e-15
 378.01,-0.40821,-0.0586382, 630.86, 620.45, 22.1375, 21.4859, 0.03487, 24.4461, 8.19018e-14, 1.48979e-15
 379.51,-0.40821,-0.0586382, 630.961, 620.598, 22.1614, 21.4987, 0.03487, 24.4461, 7.97032e-14, 1.44245e-15
 381.01,-0.40821,-0.0586382, 631.059, 620.742, 22.1856, 21.5118, 0.03487, 24.4461, 7.75745e-14, 1.39676e-15
 382.51,-0.40821,-0.0586382, 631.143, 620.879, 22.2102, 21.5251, 0.03487, 24.4461, 7.55132e-14, 1.35259e-15
 384.01,-0.40821,-0.0586382, 631.24, 621.021, 22.235, 21.5386, 0.03487, 24.4461, 7.35167e-14, 1.31014e-15
 385.51,-0.40821,-0.0586382, 631.337, 621.163, 22.2602, 21.5523, 0.03487, 24.4461, 7.15828e-14, 1.26928e-15
 387.01,-0.40821,-0.0586382, 631.434, 621.304, 22.2858, 21.5662, 0.03487, 24.4461, 6.9709e-14, 1.22986e-15
 388.51,-0.40821,-0.0586382, 631.52, 621.431, 22.3116, 21.5803, 0.03487, 24.4461, 6.78935e-14, 1.19153e-15
 390.01,-0.40821,-0.0586382, 631.612, 621.565, 22.3378, 21.5947, 0.03487, 24.4461, 6.61343e-14, 1.15477e-15
 391.51,-0.40821,-0.0586382, 631.704, 621.699, 22.3644, 21.6093, 0.03487, 24.4461, 6.44292e-14, 1.11933e-15
 393.01,-0.40821,-0.0586382, 631.794, 621.83, 22.3912, 21.6241, 0.03487, 24.4461, 6.27764e-14, 1.08511e-15
 394.51,-0.40821,-0.0586382, 631.869, 621.955, 22.4184, 21.6392, 0.03487, 24.4461, 6.1174e-14, 1.05197e-15
 396.01,-0.40821,-0.0586382, 631.955, 622.081, 22.4459, 21.6545, 0.03487, 24.4461, 5.96205e-14, 1.02003e-15
 397.51,-0.40821,-0.0586382, 632.042, 622.209, 22.4738, 21.67, 0.03487, 24.4461, 5.8114e-14, 9.89288e-16
 399.01,-0.40821,-0.0586382, 632.126, 622.331, 22.502, 21.6858, 0.03487, 24.4461, 5.66528e-14, 9.59512e-16
 400.51,-0.40821,-0.0586382, 632.211, 622.455, 22.5305, 21.7018, 0.03487, 24.4461, 5.52355e-14, 9.30817e-16
 402.01,-0.40821,-0.0586382, 632.291, 622.572, 22.5593, 21.718, 0.03487, 24.4461, 5.38605e-14, 9.03007e-16
 403.51,-0.40821,-0.0586382, 632.369, 622.686, 22.5885, 21.7345, 0.03487, 24.4461, 5.25265e-14, 8.76108e-16
 405.01,-0.40821,-0.0586382, 632.45, 622.804, 22.618, 21.7512, 0.03487, 24.4461, 5.12321e-14, 8.50227e-16
 406.51,-0.40821,-0.0586382, 632.52, 622.921, 22.6479, 21.7681, 0.03487, 24.4461, 4.99759e-14, 8.25228e-16
 408.01,-0.40821,-0.0586382, 632.601, 623.04, 22.6781, 21.7853, 0.03487, 24.4461, 4.87565e-14, 8.01122e-16
 409.51,-0.40821,-0.0586382, 632.677, 623.15, 22.7086, 21.8028, 0.03487, 24.4461, 4.75727e-14, 7.77713e-16
 411.01,-0.40821,-0.0586382, 632.75, 623.257, 22.7394, 21.8205, 0.03487, 24.4461, 4.64235e-14, 7.55046e-16
 412.51,-0.40821,-0.0586382, 632.827, 623.37, 22.7706, 21.8384, 0.03487, 24.4461, 4.53076e-14, 7.33253e-16
 414.01,-0.40821,-0.0586382, 632.903, 623.482, 22.802, 21.8566, 0.03487, 24.4461, 4.42238e-14, 7.12178e-16
 415.51,-0.40821,-0.0586382, 632.976, 623.588, 22.8339, 21.8751, 0.03487, 24.4461, 4.31711e-14, 6.91739e-16
 417.01,-0.40821,-0.0586382, 633.05, 623.695, 22.866, 21.8938, 0.03487, 24.4461, 4.21486e-14, 6.72015e-16
 418.51,-0.40821,-0.0586382, 633.119, 623.797, 22.8985, 21.9127, 0.03487, 24.4461, 4.11552e-14, 6.52864e-16
 420.01,-0.40821,-0.0586382, 633.18, 623.899, 22.9313, 21.9319, 0.03487, 24.4461, 4.019e-14, 6.3438e-16
 421.51,-0.40821,-0.0586382, 633.251, 624.003, 22.9644, 21.9514, 0.03487, 24.4461, 3.92521e-14, 6.16524e-16
 423.01,-0.40821,-0.0586382, 633.323, 624.109, 22.9978, 21.9711, 0.03487, 24.4461, 3.83405e-14, 5.99286e-16
 424.51,-0.40821,-0.0586382, 633.394, 624.212, 23.0316, 21.9911, 0.03487, 24.4461, 3.74543e-14, 5.82585e-16
 426.01,-0.40821,-0.0586382, 633.463, 624.314, 23.0657, 22.0113, 0.03487, 24.4461, 3.65928e-14, 5.66418e-16
 427.51,-0.40821,-0.0586382, 633.525, 624.405, 23.1001, 22.0318, 0.03487, 24.4461, 3.57552e-14, 5.50654e-16
 429.01,-0.40821,-0.0586382, 633.592, 624.502, 23.1349, 22.0526, 0.03487, 24.4461, 3.49408e-14, 5.35478e-16
 430.51,-0.40821,-0.0586382, 633.659, 624.6, 23.1699, 22.0736, 0.03487, 24.4461, 3.41488e-14, 5.20809e-16
 432.01,-0.40821,-0.0586382, 633.726, 624.698, 23.2053, 22.0949, 0.03487, 24.4461, 3.33785e-14, 5.06618e-16
 433.51,-0.40821,-0.0586382, 633.79, 624.792, 23.241, 22.1164, 0.03487, 24.4461, 3.2629e-14, 4.92839e-16
 435.01,-0.40821,-0.0586382, 633.844, 624.885, 23.277, 22.1382, 0.03487, 24.4461, 3.19e-14, 4.79485e-16
 436.51,-0.40821,-0.0586382, 633.906, 624.975, 23.3133, 22.1603, 0.03487, 24.4461, 3.11906e-14, 4.66541e-16
 438.01,-0.40821,-0.0586382, 633.97, 625.068, 23.3499, 22.1826, 0.03487, 24.4461, 3.05004e-14, 4.54039e-16
 439.51,-0.40821,-0.0586382, 634.034, 625.162, 23.3869, 22.2052, 0.03487, 24.4461, 2.98286e-14, 4.41931e-16
 441.01,-0.40821,-0.0586382, 634.094, 625.25, 23.4241, 22.2281, 0.03487, 24.4461, 2.91747e-14, 4.30161e-16
 442.51,-0.40821,-0.0586382, 634.156, 625.34, 23.4617, 22.2512, 0.03487, 24.4461, 2.85381e-14, 4.18782e-16
 444.01,-0.40821,-0.0586382, 634.218, 625.431, 23.4996, 22.2746, 0.03487, 24.4461, 2.79184e-14, 4.07763e-16
 445.51,-0.40821,-0.0586382, 634.279, 625.519, 23.5378, 22.2983, 0.03487, 24.4461, 2.73149e-14, 3.97064e-16
 447.01,-0.40821,-0.0586382, 634.333, 625.599, 23.5763, 22.3222, 0.03487, 24.4461, 2.67273e-14, 3.86632e-16
 448.51,-0.40821,-0.0586382, 634.391, 625.683, 23.6151, 22.3464, 0.03487, 24.4461, 2.6155e-14, 3.76556e-16
 450.01,-0.40821,-0.0586382, 634.449, 625.769, 23.6542, 22.3709, 0.03487, 24.4461, 2.55976e-14, 3.66806e-16
 451.51,-0.40821,-0.0586382, 634.502, 625.853, 23.6936, 22.3956, 0.03487, 24.4461, 2.50546e-14, 3.57345e-16
 453.01,-0.40821,-0.0586382, 634.557, 625.94, 23.7333, 22.4206, 0.03487, 24.4461, 2.45256e-14, 3.48189e-16
 454.51,-0.40821,-0.0586382, 634.616, 626.026, 23.7733, 22.4459, 0.03487, 24.4461, 2.40101e-14, 3.39304e-16
 456.01,-0.40821,-0.0586382, 634.671, 626.106, 23.8136, 22.4715, 0.03487, 24.4461, 2.35078e-14, 3.30654e-16
 457.51,-0.40821,-0.0586382, 634.723, 626.182, 23.8542, 22.4973, 0.03487, 24.4461, 2.30182e-14, 3.22231e-16
 459.01,-0.40821,-0.0586382, 634.778, 626.262, 23.8951, 22.5234, 0.03487, 24.4461, 2.25411e-14, 3.14094e-16
 460.51,-0.40821,-0.0586382, 634.834, 626.344, 23.9363, 22.5497, 0.03487, 24.4461, 2.2076e-14, 3.0621e-16
 462.01,-0.40821,-0.0586382, 634.889, 626.425, 23.9778, 22.5764, 0.03487, 24.4461, 2.16225e-14, 2.98558e-16
 463.51,-0.40821,-0.0586382, 634.941, 626.501, 24.0196, 22.6033, 0.03487, 24.4461, 2.11804e-14, 2.91098e-16
 465.01,-0.40821,-0.0586382, 634.993, 626.578, 24.0617, 22.6305, 0.03487, 24.4461, 2.07492e-14, 2.83869e-16
 466.51,-0.40821,-0.0586382, 635.047, 626.656, 24.104, 22.6579, 0.03487, 24.4461, 2.03288e-14, 2.7686e-16
 468.01,-0.40821,-0.0586382, 635.1, 626.734, 24.1467, 22.6856, 0.03487, 24.4461, 1.99187e-14, 2.70056e-16
 469.51,-0.40821,-0.0586382, 635.147, 626.803, 24.1896, 22.7136, 0.03487, 24.4461, 1.95187e-14, 2.63398e-16
 471.01,-0.40821,-0.0586382, 635.189, 626.876, 24.2328, 22.7419, 0.03487, 24.4461, 1.91285e-14, 2.56959e-16
 472.51,-0.40821,-0.0586382, 635.24, 626.951, 24.2763, 22.7704, 0.03487, 24.4461, 1.87478e-14, 2.50717e-16
 474.01,-0.40821,-0.0586382, 635.292, 627.027, 24.3201, 22.7992, 0.03487, 24.4461, 1.83764e-14, 2.44663e-16
 475.51,-0.40821,-0.0586382, 635.343, 627.101, 24.3642, 22.8282, 0.03487, 24.4461, 1.80139e-14, 2.38769e-16
 477.01,-0.40821,-0.0586382, 635.393, 627.174, 24.4086, 22.8576, 0.03487, 24.4461, 1.76601e-14, 2.33041e-16
 478.51,-0.40821,-0.0586382, 635.443, 627.247, 24.4532, 22.8872, 0.03487, 24.4461, 1.73148e-14, 2.27479e-16
 480.01,-0.40821,-0.0586382, 635.491, 627.318, 24.4981, 22.9171, 0.03487, 24.4461, 1.69777e-14, 2.22061e-16
 481.51,-0.40821,-0.0586382, 635.534, 627.381, 24.5433, 22.9472, 0.03487, 24.4461, 1.66487e-14, 2.16762e-16
 483.01,-0.40821,-0.0586382, 635.58, 627.448, 24.5888, 22.9776, 0.03487, 24.4461, 1.63274e-14, 2.11634e-16
 484.51,-0.40821,-0.0586382, 635.628, 627.519, 24.6345, 23.0083, 0.03487, 24.4461, 1.60138e-14, 2.06663e-16
 486.01,-0.40821,-0.0586382, 635.676, 627.588, 24.6805, 23.0392, 0.03487, 24.4461, 1.57075e-14, 2.01827e-16
 487.51,-0.40821,-0.0586382, 635.723, 627.658, 24.7268, 23.0705, 0.03487, 24.4461, 1.54083e-14, 1.97126e-16
 489.01,-0.40821,-0.0586382, 635.77, 627.726, 24.7733, 23.102, 0.03487, 24.4461, 1.51161e-14, 1.92548e-16
 490.51,-0.40821,-0.0586382, 635.813, 627.79, 24.8201, 23.1337, 0.03487, 24.4461, 1.48307e-14, 1.88082e-16
 492.01,-0.40821,-0.0586382, 635.853, 627.855, 24.8672, 23.1657, 0.03487, 24.4461, 1.45519e-14, 1.83745e-16
 493.51,-0.40821,-0.0586382, 635.896, 627.923, 24.9146, 23.198, 0.03487, 24.4461, 1.42795e-14, 1.79536e-16
 495.01,-0.40821,-0.0586382, 635.939, 627.985, 24.9622, 23.2306, 0.03487, 24.4461, 1.40133e-14, 1.75421e-16
 496.51,-0.40821,-0.0586382, 635.984, 628.051, 25.01, 23.2634, 0.03487, 24.4461, 1.37533e-14, 1.71432e-16
 498.01,-0.40821,-0.0586382, 636.028, 628.116, 25.0582, 23.2965, 0.03487, 24.4461, 1.34991e-14, 1.67547e-16
 499.51,-0.40821,-0.0586382, 636.071, 628.178, 25.1066, 23.3298, 0.03487, 24.4461, 1.32506e-14, 1.63758e-16
 500,-0.40821,-0.0586382, 636.085, 628.198, 25.1226, 23.3409, 0.03487, 24.4461, 1.31699e-14, 1.6253e-16