File: PMMA/Calibration_Results/NIST_FSRI/All_Props/DBI_4[NIST_FSRI]_Gasification_q50_R3_Mass.csv
s,kg/m2,,C,C,C,C,m,kg/m2,kg/m2,kg/m2/s
Time,"SD","MF","TW1","TSB1","TAL1","TB1","DX1","SD1","SD_11","BR1"
 0.0000000E+000, 6.96199, 1.00007, 20.9, 20.9, 20.9, 20.9, 0.041108, 31.8163, 7.3702, 0.0000000E+000
 1.5, 6.96199, 1.00007, 126.574, 20.9, 20.9, 20.9, 0.041108, 31.8163, 7.3702, 8.57772e-12
 3.01, 6.96199, 1.00007, 174.003, 20.9, 20.9, 20.9, 0.041108, 31.8163, 7.3702, 1.5025e-09
 4.51, 6.96199, 1.00007, 208.547, 20.9, 20.9, 20.9, 0.041108, 31.8163, 7.3702, 3.37397e-08
 6.01, 6.96199, 1.00007, 236.057, 20.9, 20.9, 20.9, 0.041108, 31.8163, 7.3702, 2.93996e-07
 7.51, 6.96199, 1.00007, 259.161, 20.9, 20.9, 20.9, 0.041108, 31.8163, 7.3702, 1.51161e-06
 9.01, 6.96198, 1.00007, 279.019, 20.9001, 20.9, 20.9, 0.041108, 31.8163, 7.37019, 5.51223e-06
 10.51, 6.96196, 1.00007, 296.468, 20.9006, 20.9, 20.9, 0.041108, 31.8163, 7.37018, 1.59141e-05
 12.01, 6.96192, 1.00006, 311.942, 20.9023, 20.9, 20.9, 0.0411079, 31.8163, 7.37014, 3.86191e-05
 13.51, 6.96182, 1.00005, 325.805, 20.907, 20.9, 20.9, 0.0411079, 31.8162, 7.37005, 8.21882e-05
 15.01, 6.96162, 1.00002, 338.299, 20.9178, 20.9, 20.9, 0.0411077, 31.816, 7.36987, 0.00015771
 16.51, 6.96127, 0.999967, 349.587, 20.9391, 20.9, 20.9, 0.0411075, 31.8157, 7.36955, 0.000278043
 18, 6.96068, 0.999883, 359.771, 20.9766, 20.9, 20.9, 0.041107, 31.8151, 7.36901, 0.000456181
 19.5, 6.95976, 0.99975, 368.981, 21.0372, 20.9, 20.9, 0.0411063, 31.8143, 7.36815, 0.000705071
 21, 6.95837, 0.999551, 377.314, 21.129, 20.9, 20.9, 0.0411052, 31.813, 7.36685, 0.00103558
 22.5, 6.95641, 0.999269, 384.794, 21.2601, 20.9, 20.9, 0.0411036, 31.8111, 7.36499, 0.00145221
 24, 6.95373, 0.998884, 391.478, 21.439, 20.9, 20.9, 0.0411014, 31.8086, 7.36244, 0.00195435
 25.5, 6.95022, 0.99838, 397.413, 21.6737, 20.9, 20.9, 0.0410986, 31.8052, 7.35908, 0.00253494
 27, 6.94577, 0.997741, 402.653, 21.9721, 20.9, 20.9, 0.041095, 31.8009, 7.35479, 0.00318164
 28.5, 6.9403, 0.996955, 407.258, 22.3411, 20.9, 20.9, 0.0410905, 31.7956, 7.34949, 0.00387864
 30, 6.93375, 0.996014, 411.287, 22.7873, 20.9, 20.9, 0.0410851, 31.7892, 7.34312, 0.0046085
 31.5, 6.92609, 0.994913, 414.803, 23.316, 20.9, 20.9, 0.0410788, 31.7818, 7.33565, 0.00535405
 33, 6.9173, 0.993651, 417.865, 23.932, 20.9, 20.9, 0.0410715, 31.7732, 7.32705, 0.00610027
 34.5, 6.90741, 0.99223, 420.533, 24.6387, 20.9, 20.9, 0.0410633, 31.7635, 7.31734, 0.00683504
 36, 6.89643, 0.990653, 422.859, 25.4392, 20.9, 20.9, 0.0410541, 31.7527, 7.30654, 0.00754921
 37.5, 6.88441, 0.988926, 424.892, 26.3351, 20.9, 20.9, 0.0410441, 31.7408, 7.29469, 0.00823639
 39, 6.87139, 0.987056, 426.673, 27.3281, 20.9, 20.9, 0.0410332, 31.7279, 7.28183, 0.00889268
 40.5, 6.85742, 0.985048, 428.24, 28.4187, 20.9, 20.9, 0.0410215, 31.7141, 7.26801, 0.00951605
 42, 6.84254, 0.982912, 429.623, 29.6071, 20.9, 20.9, 0.041009, 31.6994, 7.25329, 0.0101063
 43.51, 6.82682, 0.980653, 430.852, 30.8974, 20.9, 20.9, 0.0409958, 31.6838, 7.23765, 0.0106653
 45.01, 6.81029, 0.978278, 431.948, 32.2856, 20.9, 20.9, 0.0409819, 31.6673, 7.22119, 0.0111931
 46.51, 6.793, 0.975795, 432.924, 33.7665, 20.9, 20.9, 0.0409673, 31.6501, 7.20402, 0.0116886
 48.01, 6.77499, 0.973209, 433.8, 35.3464, 20.9, 20.9, 0.0409522, 31.6322, 7.18613, 0.0121558
 49.51, 6.75632, 0.970526, 434.59, 37.0349, 20.9, 20.9, 0.0409365, 31.6137, 7.16756, 0.0125965
 51.01, 6.737, 0.967752, 435.304, 38.8302, 20.9, 20.9, 0.0409202, 31.5945, 7.14834, 0.0130123
 52.51, 6.71709, 0.964891, 435.953, 40.7156, 20.9, 20.9, 0.0409035, 31.5746, 7.12852, 0.0134051
 54.01, 6.69661, 0.961949, 436.548, 42.6642, 20.9, 20.9, 0.0408862, 31.5542, 7.10813, 0.0137785
 55.51, 6.67558, 0.958929, 437.092, 44.6686, 20.9, 20.9, 0.0408685, 31.5333, 7.08719, 0.0141317
 57.01, 6.65405, 0.955836, 437.587, 46.7273, 20.9, 20.9, 0.0408503, 31.5119, 7.06574, 0.0144655
 58.51, 6.63203, 0.952673, 438.05, 48.8379, 20.9, 20.9, 0.0408317, 31.4899, 7.04379, 0.0147858
 60.01, 6.60955, 0.949443, 438.47, 50.9971, 20.9, 20.9, 0.0408128, 31.4675, 7.02138, 0.0150873
 61.51, 6.58662, 0.94615, 438.868, 53.2024, 20.9, 20.9, 0.0407934, 31.4446, 6.99853, 0.0153792
 63.01, 6.56328, 0.942797, 439.229, 55.4515, 20.9, 20.9, 0.0407737, 31.4214, 6.97525, 0.0156541
 64.51, 6.53953, 0.939385, 439.576, 57.7431, 20.9, 20.9, 0.0407537, 31.3977, 6.95156, 0.015922
 66.01, 6.51539, 0.935918, 439.891, 60.0774, 20.9, 20.9, 0.0407333, 31.3736, 6.92749, 0.0161745
 67.51, 6.49088, 0.932397, 440.195, 62.4519, 20.9, 20.9, 0.0407126, 31.3492, 6.90304, 0.016421
 69.01, 6.46601, 0.928825, 440.475, 64.8633, 20.9, 20.9, 0.0406916, 31.3243, 6.87823, 0.0166565
 70.51, 6.4408, 0.925203, 440.735, 67.3085, 20.9, 20.9, 0.0406703, 31.2992, 6.85307, 0.0168812
 72.01, 6.41526, 0.921534, 440.993, 69.7849, 20.9, 20.9, 0.0406487, 31.2737, 6.82758, 0.0171049
 73.5, 6.38939, 0.917818, 441.225, 72.2735, 20.9, 20.9, 0.040627, 31.248, 6.80193, 0.017315
 75, 6.36321, 0.914057, 441.446, 74.8057, 20.9, 20.9, 0.0406049, 31.2219, 6.7758, 0.0175195
 76.5, 6.33672, 0.910252, 441.668, 77.363, 20.9, 20.9, 0.0405825, 31.1955, 6.74936, 0.0177241
 78, 6.30994, 0.906405, 441.87, 79.9438, 20.9, 20.9, 0.0405599, 31.1687, 6.72263, 0.0179193
 79.5, 6.28287, 0.902516, 442.06, 82.5466, 20.9, 20.9, 0.040537, 31.1417, 6.69561, 0.0181076
 81, 6.25551, 0.898587, 442.255, 85.1701, 20.9, 20.9, 0.0405139, 31.1144, 6.6683, 0.0182977
 82.5, 6.22788, 0.894618, 442.433, 87.8134, 20.9, 20.9, 0.0404906, 31.0868, 6.64072, 0.0184803
 84, 6.19998, 0.89061, 442.603, 90.4755, 20.9, 20.9, 0.040467, 31.059, 6.61286, 0.018658
 85.5, 6.17182, 0.886565, 442.765, 93.156, 20.9, 20.9, 0.0404432, 31.0309, 6.58474, 0.0188313
 87, 6.14339, 0.882481, 442.936, 95.8548, 20.9, 20.9, 0.0404192, 31.0025, 6.55636, 0.0190099
 88.5, 6.1147, 0.87836, 443.088, 98.5726, 20.9, 20.9, 0.0403949, 30.9738, 6.52771, 0.019179
 90, 6.08577, 0.874203, 443.236, 101.312, 20.9, 20.9, 0.0403705, 30.9449, 6.49882, 0.019346
 91.5, 6.05658, 0.870011, 443.38, 104.076, 20.9, 20.9, 0.0403458, 30.9158, 6.46967, 0.0195108
 93, 6.02714, 0.865782, 443.53, 106.863, 20.9, 20.9, 0.0403209, 30.8864, 6.44028, 0.0196802
 94.5, 5.99746, 0.861518, 443.667, 109.668, 20.9, 20.9, 0.0402958, 30.8568, 6.41063, 0.0198423
 96, 5.96753, 0.85722, 443.797, 112.49, 20.9, 20.9, 0.0402705, 30.8269, 6.38075, 0.0200017
 97.5, 5.93737, 0.852887, 443.927, 115.326, 20.9, 20.9, 0.0402451, 30.7967, 6.35062, 0.0201609
 99, 5.90696, 0.848519, 444.065, 118.174, 20.9, 20.9, 0.0402193, 30.7664, 6.32026, 0.0203253
 100.5, 5.87631, 0.844116, 444.191, 121.032, 20.9, 20.9, 0.0401934, 30.7358, 6.28965, 0.0204847
 102, 5.84543, 0.839679, 444.311, 123.899, 20.9, 20.9, 0.0401673, 30.7049, 6.2588, 0.0206408
 103.5, 5.81431, 0.835209, 444.428, 126.771, 20.9, 20.9, 0.040141, 30.6738, 6.22772, 0.0207966
 105, 5.78295, 0.830705, 444.558, 129.647, 20.9001, 20.9, 0.0401145, 30.6425, 6.1964, 0.0209595
 106.5, 5.75135, 0.826166, 444.674, 132.523, 20.9001, 20.9, 0.0400878, 30.611, 6.16484, 0.0211171
 108, 5.71952, 0.821593, 444.789, 135.396, 20.9001, 20.9, 0.0400609, 30.5792, 6.13305, 0.0212741
 109.5, 5.68745, 0.816986, 444.898, 138.262, 20.9001, 20.9, 0.0400338, 30.5471, 6.10102, 0.0214291
 111, 5.65515, 0.812346, 445.016, 141.115, 20.9001, 20.9, 0.0400065, 30.5149, 6.06876, 0.0215893
 112.5, 5.6226, 0.807671, 445.132, 143.946, 20.9001, 20.9, 0.039979, 30.4824, 6.03625, 0.0217511
 114, 5.58981, 0.802961, 445.239, 146.759, 20.9002, 20.9, 0.0399513, 30.4496, 6.0035, 0.0219084
 115.5, 5.55679, 0.798217, 445.346, 149.556, 20.9002, 20.9, 0.0399233, 30.4166, 5.97052, 0.0220667
 117, 5.52353, 0.79344, 445.449, 152.339, 20.9002, 20.9, 0.0398952, 30.3834, 5.9373, 0.0222233
 118.5, 5.49003, 0.788627, 445.567, 155.11, 20.9002, 20.9, 0.0398669, 30.35, 5.90384, 0.0223904
 120, 5.45628, 0.783779, 445.672, 157.869, 20.9003, 20.9, 0.0398384, 30.3163, 5.87013, 0.0225519
 121.5, 5.42229, 0.778897, 445.773, 160.617, 20.9003, 20.9, 0.0398096, 30.2823, 5.83618, 0.0227113
 123, 5.38806, 0.77398, 445.874, 163.354, 20.9004, 20.9, 0.0397807, 30.2481, 5.80199, 0.0228726
 124.5, 5.35359, 0.769028, 445.979, 166.082, 20.9004, 20.9001, 0.0397516, 30.2137, 5.76756, 0.0230366
 126, 5.31886, 0.76404, 446.086, 168.799, 20.9005, 20.9001, 0.0397222, 30.179, 5.73288, 0.0232049
 127.5, 5.28389, 0.759016, 446.185, 171.507, 20.9006, 20.9001, 0.0396926, 30.1441, 5.69794, 0.0233685
 129, 5.24867, 0.753957, 446.279, 174.206, 20.9007, 20.9001, 0.0396629, 30.1089, 5.66277, 0.0235306
 130.5, 5.21321, 0.748863, 446.375, 176.896, 20.9007, 20.9001, 0.0396329, 30.0735, 5.62735, 0.0236955
 132, 5.1775, 0.743733, 446.482, 179.577, 20.9008, 20.9001, 0.0396027, 30.0378, 5.59168, 0.0238667
 133.5, 5.14152, 0.738566, 446.579, 182.249, 20.901, 20.9001, 0.0395723, 30.0019, 5.55575, 0.0240358
 135, 5.1053, 0.733363, 446.671, 184.914, 20.9011, 20.9001, 0.0395417, 29.9657, 5.51957, 0.0242021
 136.5, 5.06883, 0.728124, 446.76, 187.569, 20.9012, 20.9002, 0.0395108, 29.9293, 5.48314, 0.0243674
 138, 5.03211, 0.722849, 446.855, 190.217, 20.9014, 20.9002, 0.0394798, 29.8926, 5.44646, 0.0245378
 139.5, 4.99513, 0.717536, 446.955, 192.857, 20.9015, 20.9002, 0.0394485, 29.8556, 5.40952, 0.0247128
 141, 4.95788, 0.712186, 447.046, 195.489, 20.9017, 20.9002, 0.039417, 29.8184, 5.37232, 0.0248845
 142.5, 4.92038, 0.7068, 447.132, 198.113, 20.9019, 20.9003, 0.0393853, 29.781, 5.33486, 0.0250541
 144, 4.88263, 0.701377, 447.217, 200.729, 20.9021, 20.9003, 0.0393534, 29.7433, 5.29715, 0.0252234
 145.5, 4.84462, 0.695916, 447.315, 203.337, 20.9023, 20.9003, 0.0393213, 29.7053, 5.25918, 0.025403
 147, 4.80634, 0.690417, 447.404, 205.938, 20.9026, 20.9004, 0.0392889, 29.6671, 5.22094, 0.0255787
 148.5, 4.76779, 0.68488, 447.488, 208.531, 20.9028, 20.9004, 0.0392563, 29.6286, 5.18244, 0.0257537
 150, 4.72898, 0.679305, 447.571, 211.116, 20.9031, 20.9005, 0.0392235, 29.5898, 5.14368, 0.025928
 151.5, 4.68992, 0.673693, 447.65, 213.694, 20.9034, 20.9005, 0.0391905, 29.5508, 5.10466, 0.0261019
 153, 4.65057, 0.668042, 447.748, 216.263, 20.9037, 20.9006, 0.0391572, 29.5115, 5.06536, 0.0262888
 154.5, 4.61096, 0.662351, 447.83, 218.825, 20.9041, 20.9007, 0.0391237, 29.4719, 5.02579, 0.0264684
 156, 4.57108, 0.656622, 447.909, 221.38, 20.9045, 20.9007, 0.03909, 29.4321, 4.98595, 0.0266478
 157.5, 4.53092, 0.650854, 447.988, 223.926, 20.9049, 20.9008, 0.0390561, 29.392, 4.94584, 0.0268282
 159, 4.4905, 0.645047, 448.069, 226.464, 20.9053, 20.9009, 0.0390219, 29.3516, 4.90546, 0.02701
 160.51, 4.44979, 0.639199, 448.159, 229.011, 20.9058, 20.901, 0.0389872, 29.3106, 4.86453, 0.0272035
 162.01, 4.4088, 0.633311, 448.236, 231.533, 20.9063, 20.9011, 0.0389526, 29.2697, 4.82358, 0.0273882
 163.51, 4.36753, 0.627384, 448.311, 234.047, 20.9069, 20.9012, 0.0389177, 29.2285, 4.78236, 0.0275735
 165.01, 4.32598, 0.621415, 448.386, 236.551, 20.9074, 20.9013, 0.0388826, 29.187, 4.74086, 0.0277607
 166.51, 4.28415, 0.615406, 448.47, 239.048, 20.908, 20.9015, 0.0388472, 29.1452, 4.69907, 0.0279538
 168.01, 4.24202, 0.609355, 448.551, 241.535, 20.9087, 20.9016, 0.0388116, 29.1031, 4.65699, 0.0281499
 169.51, 4.19961, 0.603262, 448.623, 244.013, 20.9094, 20.9018, 0.0387757, 29.0607, 4.61462, 0.0283405
 171.01, 4.1569, 0.597128, 448.695, 246.482, 20.9101, 20.9019, 0.0387396, 29.0181, 4.57197, 0.0285338
 172.51, 4.11391, 0.590952, 448.766, 248.941, 20.9109, 20.9021, 0.0387033, 28.9751, 4.52902, 0.0287282
 174.01, 4.07061, 0.584732, 448.85, 251.391, 20.9117, 20.9023, 0.0386667, 28.9319, 4.48577, 0.0289318
 175.51, 4.02701, 0.578469, 448.925, 253.83, 20.9125, 20.9025, 0.0386298, 28.8883, 4.44222, 0.0291341
 177.01, 3.98311, 0.572163, 448.993, 256.259, 20.9134, 20.9027, 0.0385927, 28.8445, 4.39837, 0.0293325
 178.51, 3.93891, 0.565814, 449.062, 258.677, 20.9144, 20.9029, 0.0385553, 28.8003, 4.35421, 0.029534
 180.01, 3.89441, 0.559421, 449.139, 261.084, 20.9154, 20.9032, 0.0385177, 28.7559, 4.30976, 0.0297407
 181.51, 3.84959, 0.552982, 449.213, 263.478, 20.9164, 20.9034, 0.0384798, 28.7111, 4.26499, 0.0299504
 183.01, 3.80445, 0.546499, 449.283, 265.861, 20.9175, 20.9037, 0.0384416, 28.666, 4.2199, 0.0301595
 184.51, 3.759, 0.53997, 449.348, 268.232, 20.9187, 20.904, 0.0384032, 28.6206, 4.17451, 0.0303663
 186.01, 3.71325, 0.533397, 449.415, 270.589, 20.9199, 20.9043, 0.0383645, 28.5749, 4.1288, 0.0305765
 187.51, 3.66716, 0.526778, 449.493, 272.934, 20.9212, 20.9046, 0.0383256, 28.5289, 4.08277, 0.0307958
 189.01, 3.62075, 0.520111, 449.559, 275.262, 20.9225, 20.905, 0.0382863, 28.4825, 4.03641, 0.0310102
 190.51, 3.57402, 0.513398, 449.626, 277.567, 20.9239, 20.9054, 0.0382468, 28.4358, 3.98973, 0.0312266
 192.01, 3.52697, 0.506639, 449.688, 279.856, 20.9254, 20.9057, 0.0382071, 28.3888, 3.94273, 0.0314413
 193.51, 3.47959, 0.499833, 449.756, 282.128, 20.9269, 20.9062, 0.038167, 28.3415, 3.8954, 0.0316603
 195.01, 3.43187, 0.492978, 449.829, 284.384, 20.9285, 20.9066, 0.0381267, 28.2939, 3.84774, 0.0318866
 196.51, 3.38382, 0.486076, 449.892, 286.625, 20.9302, 20.9071, 0.038086, 28.2459, 3.79974, 0.0321067
 198.01, 3.33544, 0.479127, 449.954, 288.848, 20.9319, 20.9075, 0.0380451, 28.1975, 3.75141, 0.0323274
 199.51, 3.28673, 0.47213, 450.011, 291.054, 20.9337, 20.908, 0.0380039, 28.1489, 3.70275, 0.0325453
 201.01, 3.23768, 0.465084, 450.086, 293.244, 20.9356, 20.9086, 0.0379625, 28.0999, 3.65376, 0.0327751
 202.51, 3.1883, 0.45799, 450.147, 295.416, 20.9375, 20.9092, 0.0379207, 28.0505, 3.60443, 0.0329989
 204.01, 3.13858, 0.450848, 450.206, 297.57, 20.9396, 20.9097, 0.0378787, 28.0009, 3.55476, 0.0332207
 205.51, 3.08852, 0.443658, 450.264, 299.705, 20.9417, 20.9104, 0.0378364, 27.9509, 3.50476, 0.0334413
 207.01, 3.03814, 0.436421, 450.322, 301.818, 20.9439, 20.911, 0.0377938, 27.9006, 3.45444, 0.0336617
 208.51, 2.98742, 0.429135, 450.392, 303.911, 20.9461, 20.9117, 0.0377509, 27.8499, 3.40377, 0.0338907
 210.01, 2.93637, 0.421801, 450.447, 305.985, 20.9485, 20.9124, 0.0377077, 27.7989, 3.35276, 0.0341091
 211.51, 2.88498, 0.414419, 450.504, 308.041, 20.9509, 20.9132, 0.0376643, 27.7476, 3.30143, 0.0343283
 213.01, 2.83327, 0.406992, 450.557, 310.079, 20.9535, 20.914, 0.0376206, 27.6959, 3.24978, 0.0345431
 214.51, 2.78124, 0.399517, 450.625, 312.099, 20.9561, 20.9148, 0.0375766, 27.6439, 3.1978, 0.0347654
 216.01, 2.72888, 0.391995, 450.68, 314.103, 20.9588, 20.9156, 0.0375323, 27.5916, 3.14548, 0.0349789
 217.51, 2.6762, 0.384428, 450.735, 316.09, 20.9616, 20.9165, 0.0374877, 27.539, 3.09286, 0.0351902
 219.01, 2.62321, 0.376816, 450.787, 318.062, 20.9645, 20.9175, 0.0374429, 27.486, 3.03991, 0.0353962
 220.51, 2.56991, 0.36916, 450.842, 320.019, 20.9675, 20.9185, 0.0373979, 27.4328, 2.98666, 0.035601
 222.01, 2.51629, 0.361458, 450.906, 321.963, 20.9705, 20.9195, 0.0373525, 27.3792, 2.9331, 0.0358113
 223.51, 2.46238, 0.353714, 450.956, 323.892, 20.9737, 20.9205, 0.0373069, 27.3254, 2.87923, 0.0360078
 225.01, 2.40817, 0.345927, 451.011, 325.809, 20.977, 20.9216, 0.0372611, 27.2712, 2.82507, 0.0362057
 226.51, 2.35367, 0.338098, 451.06, 327.715, 20.9804, 20.9228, 0.037215, 27.2167, 2.77062, 0.0363936
 228.01, 2.29888, 0.330228, 451.127, 329.612, 20.9839, 20.924, 0.0371687, 27.162, 2.71588, 0.0365897
 229.51, 2.24381, 0.322318, 451.18, 331.502, 20.9874, 20.9252, 0.0371221, 27.107, 2.66085, 0.0367741
 231.01, 2.18847, 0.314368, 451.235, 333.388, 20.9911, 20.9265, 0.0370753, 27.0517, 2.60556, 0.036954
 232.51, 2.13287, 0.306381, 451.287, 335.27, 20.9949, 20.9278, 0.0370283, 26.9961, 2.54999, 0.0371275
 234.01, 2.077, 0.298356, 451.354, 337.152, 20.9988, 20.9292, 0.036981, 26.9403, 2.49417, 0.0373049
 235.51, 2.02088, 0.290293, 451.411, 339.036, 21.0028, 20.9307, 0.0369335, 26.8842, 2.43808, 0.0374732
 237.01, 1.9645, 0.282195, 451.47, 340.924, 21.007, 20.9321, 0.0368859, 26.8279, 2.38175, 0.0376377
 238.51, 1.90789, 0.274062, 451.529, 342.818, 21.0112, 20.9337, 0.036838, 26.7713, 2.32517, 0.0377961
 240.01, 1.85104, 0.265896, 451.599, 344.721, 21.0156, 20.9353, 0.0367899, 26.7145, 2.26836, 0.0379548
 241.51, 1.79395, 0.257696, 451.666, 346.636, 21.02, 20.9369, 0.0367416, 26.6574, 2.21131, 0.038109
 243.01, 1.73664, 0.249463, 451.735, 348.564, 21.0246, 20.9386, 0.0366931, 26.6001, 2.15403, 0.038258
 244.51, 1.67911, 0.241199, 451.803, 350.51, 21.0293, 20.9404, 0.0366445, 26.5427, 2.09653, 0.0384004
 246.01, 1.62136, 0.232904, 451.887, 352.476, 21.0341, 20.9422, 0.0365956, 26.4849, 2.03882, 0.038545
 247.51, 1.5634, 0.224578, 451.968, 354.467, 21.0391, 20.9441, 0.0365466, 26.427, 1.9809, 0.0386847
 249.01, 1.50524, 0.216224, 452.054, 356.484, 21.0441, 20.9461, 0.0364974, 26.3689, 1.92277, 0.0388202
 250.51, 1.44688, 0.207841, 452.141, 358.533, 21.0493, 20.9481, 0.036448, 26.3106, 1.86444, 0.0389484
 252.01, 1.38833, 0.199429, 452.249, 360.617, 21.0546, 20.9502, 0.0363985, 26.252, 1.80592, 0.0390824
 253.51, 1.32958, 0.19099, 452.353, 362.74, 21.0601, 20.9523, 0.0363488, 26.1933, 1.7472, 0.0392074
 255.01, 1.27064, 0.182524, 452.467, 364.906, 21.0657, 20.9545, 0.0362989, 26.1344, 1.68829, 0.0393312
 256.51, 1.21152, 0.174032, 452.598, 367.12, 21.0713, 20.9568, 0.0362489, 26.0753, 1.6292, 0.0394543
 258.01, 1.15222, 0.165514, 452.733, 369.385, 21.0772, 20.9591, 0.0361988, 26.0161, 1.56993, 0.0395727
 259.51, 1.09275, 0.15697, 452.882, 371.708, 21.0831, 20.9615, 0.0361484, 25.9566, 1.51049, 0.0396875
 261.01, 1.03311, 0.148403, 453.05, 374.094, 21.0892, 20.964, 0.036098, 25.897, 1.45087, 0.0398004
 262.51, 0.973294, 0.139811, 453.231, 376.548, 21.0954, 20.9666, 0.0360474, 25.8372, 1.39108, 0.0399102
 264.01, 0.913323, 0.131196, 453.431, 379.077, 21.1018, 20.9692, 0.0359966, 25.7773, 1.33114, 0.0400149
 265.51, 0.853195, 0.122559, 453.661, 381.689, 21.1083, 20.9719, 0.0359458, 25.7172, 1.27104, 0.0401194
 267.01, 0.792919, 0.113901, 453.909, 384.392, 21.1149, 20.9747, 0.0358948, 25.6569, 1.21078, 0.040215
 268.51, 0.732502, 0.105222, 454.195, 387.195, 21.1216, 20.9775, 0.0358437, 25.5965, 1.15039, 0.0403091
 270.01, 0.671951, 0.0965239, 454.512, 390.108, 21.1285, 20.9805, 0.0357924, 25.536, 1.08986, 0.0403945
 271.51, 0.611279, 0.0878085, 454.878, 393.142, 21.1356, 20.9835, 0.0357411, 25.4753, 1.0292, 0.0404749
 273.01, 0.550498, 0.0790775, 455.289, 396.312, 21.1427, 20.9866, 0.0356897, 25.4146, 0.968439, 0.040543
 274.51, 0.489622, 0.0703328, 455.765, 399.631, 21.1501, 20.9898, 0.0356382, 25.3537, 0.907578, 0.0406029
 276.01, 0.428673, 0.0615777, 456.314, 403.119, 21.1575, 20.993, 0.0355866, 25.2928, 0.846639, 0.0406471
 277.51, 0.367674, 0.0528154, 456.951, 406.796, 21.1651, 20.9964, 0.035535, 25.2318, 0.785646, 0.0406737
 279.01, 0.306656, 0.0440503, 457.697, 410.689, 21.1729, 20.9998, 0.0354833, 25.1707, 0.724629, 0.0406779
 280.51, 0.245658, 0.0352881, 458.582, 414.828, 21.1808, 21.0033, 0.0354317, 25.1097, 0.663625, 0.0406553
 282.01, 0.184731, 0.0265361, 459.636, 419.253, 21.1888, 21.0069, 0.0353801, 25.0488, 0.602683, 0.0405952
 283.51, 0.12394, 0.0178037, 460.907, 424.013, 21.197, 21.0106, 0.0353286, 24.988, 0.541865, 0.040487
 285.01, 0.0633723, 0.00910326, 462.458, 429.172, 21.2053, 21.0143, 0.0352773, 24.9274, 0.481255, 0.040316
 286.51, 0.00314449, 0.000451697, 464.377, 434.815, 21.2138, 21.0182, 0.0352263, 24.8671, 0.420964, 0.0400587
 288.01,-0.0565825,-0.00812791, 466.79, 441.062, 21.2224, 21.0222, 0.0351757, 24.8073, 0.361145, 0.0396821
 289.51,-0.115608,-0.0166068, 469.916, 448.133, 21.2312, 21.0262, 0.0351256, 24.7481, 0.301992, 0.0391635
 291.01,-0.173599,-0.024937, 473.992, 456.253, 21.2401, 21.0304, 0.0350764, 24.6899, 0.243806, 0.038369
 292.51,-0.230014,-0.0330409, 479.506, 465.841, 21.2492, 21.0346, 0.0350284, 24.6332, 0.187096, 0.0371688
 294.01,-0.283986,-0.0407939, 487.288, 477.659, 21.2584, 21.0389, 0.0349823, 24.5788, 0.13266, 0.0352839
 295.51,-0.3339,-0.0479638, 498.925, 493.164, 21.2678, 21.0433, 0.0349394, 24.5281, 0.0819462, 0.032067
 297.01,-0.376256,-0.0540482, 517.824, 515.624, 21.2774, 21.0479, 0.0349022, 24.4841, 0.0380161, 0.0257989
 298.51,-0.403015,-0.0578919, 550.764, 550.428, 21.2871, 21.0525, 0.0348768, 24.4541, 0.00801661, 0.012777
 300.01,-0.40821,-0.0586382, 577.646, 540.126, 21.2969, 21.0572, 0.03487, 24.4461, 5.65779e-18, 3.60148e-17
 301.51,-0.40821,-0.0586382, 586.691, 554.011, 21.3069, 21.062, 0.03487, 24.4461, 2.17015e-19, 0.0000000E+000
 303.01,-0.40821,-0.0586382, 592.307, 562.574, 21.3171, 21.067, 0.03487, 24.4461, 2.17015e-19, 0.0000000E+000
 304.51,-0.40821,-0.0586382, 596.326, 568.681, 21.3274, 21.072, 0.03487, 24.4461, 2.17015e-19, 0.0000000E+000
 306.01,-0.40821,-0.0586382, 599.425, 573.375, 21.3379, 21.0771, 0.03487, 24.4461, 2.17015e-19, 0.0000000E+000
 307.51,-0.40821,-0.0586382, 601.927, 577.156, 21.3485, 21.0824, 0.03487, 24.4461, 2.17015e-19, 0.0000000E+000
 309.01,-0.40821,-0.0586382, 604.012, 580.305, 21.3593, 21.0877, 0.03487, 24.4461, 2.17015e-19, 0.0000000E+000
 310.51,-0.40821,-0.0586382, 605.794, 582.991, 21.3703, 21.0931, 0.03487, 24.4461, 2.17015e-19, 0.0000000E+000
 312.01,-0.40821,-0.0586382, 607.336, 585.313, 21.3814, 21.0987, 0.03487, 24.4461, 2.17015e-19, 0.0000000E+000
 313.51,-0.40821,-0.0586382, 608.688, 587.346, 21.3927, 21.1044, 0.03487, 24.4461, 2.17015e-19, 0.0000000E+000
 315.01,-0.40821,-0.0586382, 609.889, 589.156, 21.4041, 21.1101, 0.03487, 24.4461, 2.17015e-19, 0.0000000E+000
 316.51,-0.40821,-0.0586382, 610.982, 590.787, 21.4157, 21.116, 0.03487, 24.4461, 2.17015e-19, 0.0000000E+000
 318.01,-0.40821,-0.0586382, 611.964, 592.268, 21.4275, 21.122, 0.03487, 24.4461, 2.17015e-19, 0.0000000E+000
 319.51,-0.40821,-0.0586382, 612.876, 593.623, 21.4394, 21.1281, 0.03487, 24.4461, 2.17015e-19, 0.0000000E+000
 321.01,-0.40821,-0.0586382, 613.702, 594.87, 21.4515, 21.1343, 0.03487, 24.4461, 2.17015e-19, 0.0000000E+000
 322.51,-0.40821,-0.0586382, 614.467, 596.023, 21.4638, 21.1407, 0.03487, 24.4461, 2.17015e-19, 0.0000000E+000
 324.01,-0.40821,-0.0586382, 615.182, 597.093, 21.4762, 21.1471, 0.03487, 24.4461, 2.17015e-19, 0.0000000E+000
 325.51,-0.40821,-0.0586382, 615.85, 598.093, 21.4888, 21.1537, 0.03487, 24.4461, 2.17015e-19, 0.0000000E+000
 327.01,-0.40821,-0.0586382, 616.475, 599.03, 21.5015, 21.1604, 0.03487, 24.4461, 2.17015e-19, 0.0000000E+000
 328.51,-0.40821,-0.0586382, 617.066, 599.909, 21.5145, 21.1672, 0.03487, 24.4461, 2.17015e-19, 0.0000000E+000
 330.01,-0.40821,-0.0586382, 617.63, 600.739, 21.5276, 21.1741, 0.03487, 24.4461, 2.17015e-19, 0.0000000E+000
 331.51,-0.40821,-0.0586382, 618.152, 601.524, 21.5408, 21.1811, 0.03487, 24.4461, 2.17015e-19, 0.0000000E+000
 333.01,-0.40821,-0.0586382, 618.643, 602.264, 21.5542, 21.1883, 0.03487, 24.4461, 2.17015e-19, 0.0000000E+000
 334.51,-0.40821,-0.0586382, 619.109, 602.968, 21.5678, 21.1955, 0.03487, 24.4461, 2.17015e-19, 0.0000000E+000
 336.01,-0.40821,-0.0586382, 619.57, 603.64, 21.5816, 21.2029, 0.03487, 24.4461, 2.17015e-19, 0.0000000E+000
 337.51,-0.40821,-0.0586382, 619.991, 604.277, 21.5955, 21.2105, 0.03487, 24.4461, 2.17015e-19, 0.0000000E+000
 339.01,-0.40821,-0.0586382, 620.397, 604.884, 21.6097, 21.2181, 0.03487, 24.4461, 2.17015e-19, 0.0000000E+000
 340.51,-0.40821,-0.0586382, 620.788, 605.463, 21.6239, 21.2259, 0.03487, 24.4461, 2.17015e-19, 0.0000000E+000
 342.01,-0.40821,-0.0586382, 621.152, 606.016, 21.6384, 21.2338, 0.03487, 24.4461, 2.17015e-19, 0.0000000E+000
 343.51,-0.40821,-0.0586382, 621.518, 606.549, 21.653, 21.2418, 0.03487, 24.4461, 2.17015e-19, 0.0000000E+000
 345.01,-0.40821,-0.0586382, 621.852, 607.059, 21.6678, 21.2499, 0.03487, 24.4461, 2.17015e-19, 0.0000000E+000
 346.51,-0.40821,-0.0586382, 622.192, 607.554, 21.6828, 21.2582, 0.03487, 24.4461, 2.17015e-19, 0.0000000E+000
 348.01,-0.40821,-0.0586382, 622.5, 608.026, 21.698, 21.2666, 0.03487, 24.4461, 2.17015e-19, 0.0000000E+000
 349.51,-0.40821,-0.0586382, 622.813, 608.481, 21.7133, 21.2751, 0.03487, 24.4461, 2.17015e-19, 0.0000000E+000
 351.01,-0.40821,-0.0586382, 623.1, 608.92, 21.7288, 21.2838, 0.03487, 24.4461, 2.17015e-19, 0.0000000E+000
 352.51,-0.40821,-0.0586382, 623.394, 609.35, 21.7445, 21.2926, 0.03487, 24.4461, 2.17015e-19, 0.0000000E+000
 354.01,-0.40821,-0.0586382, 623.675, 609.76, 21.7604, 21.3015, 0.03487, 24.4461, 2.17015e-19, 0.0000000E+000
 355.51,-0.40821,-0.0586382, 623.932, 610.156, 21.7764, 21.3105, 0.03487, 24.4461, 2.17015e-19, 0.0000000E+000
 357.01,-0.40821,-0.0586382, 624.2, 610.547, 21.7927, 21.3197, 0.03487, 24.4461, 2.17015e-19, 0.0000000E+000
 358.51,-0.40821,-0.0586382, 624.44, 610.917, 21.8091, 21.329, 0.03487, 24.4461, 2.17015e-19, 0.0000000E+000
 360.01,-0.40821,-0.0586382, 624.688, 611.28, 21.8257, 21.3385, 0.03487, 24.4461, 2.17015e-19, 0.0000000E+000
 361.51,-0.40821,-0.0586382, 624.933, 611.637, 21.8425, 21.3481, 0.03487, 24.4461, 2.17015e-19, 0.0000000E+000
 363.01,-0.40821,-0.0586382, 625.15, 611.973, 21.8594, 21.3578, 0.03487, 24.4461, 2.17015e-19, 0.0000000E+000
 364.51,-0.40821,-0.0586382, 625.382, 612.312, 21.8766, 21.3677, 0.03487, 24.4461, 2.17015e-19, 0.0000000E+000
 366.01,-0.40821,-0.0586382, 625.601, 612.631, 21.894, 21.3777, 0.03487, 24.4461, 2.17015e-19, 0.0000000E+000
 367.51,-0.40821,-0.0586382, 625.806, 612.949, 21.9115, 21.3878, 0.03487, 24.4461, 2.17015e-19, 0.0000000E+000
 369.01,-0.40821,-0.0586382, 626.015, 613.254, 21.9293, 21.3981, 0.03487, 24.4461, 2.17015e-19, 0.0000000E+000
 370.51,-0.40821,-0.0586382, 626.222, 613.556, 21.9472, 21.4085, 0.03487, 24.4461, 2.17015e-19, 0.0000000E+000
 372.01,-0.40821,-0.0586382, 626.414, 613.844, 21.9654, 21.4191, 0.03487, 24.4461, 2.17015e-19, 0.0000000E+000
 373.51,-0.40821,-0.0586382, 626.604, 614.133, 21.9837, 21.4298, 0.03487, 24.4461, 2.17015e-19, 0.0000000E+000
 375.01,-0.40821,-0.0586382, 626.791, 614.406, 22.0023, 21.4406, 0.03487, 24.4461, 2.17015e-19, 0.0000000E+000
 376.51,-0.40821,-0.0586382, 626.98, 614.682, 22.0211, 21.4516, 0.03487, 24.4461, 2.17015e-19, 0.0000000E+000
 378.01,-0.40821,-0.0586382, 627.144, 614.94, 22.0401, 21.4628, 0.03487, 24.4461, 2.17015e-19, 0.0000000E+000
 379.51,-0.40821,-0.0586382, 627.324, 615.202, 22.0593, 21.4741, 0.03487, 24.4461, 2.17015e-19, 0.0000000E+000
 381.01,-0.40821,-0.0586382, 627.495, 615.452, 22.0787, 21.4855, 0.03487, 24.4461, 2.17015e-19, 0.0000000E+000
 382.51,-0.40821,-0.0586382, 627.664, 615.698, 22.0983, 21.4971, 0.03487, 24.4461, 2.17015e-19, 0.0000000E+000
 384.01,-0.40821,-0.0586382, 627.817, 615.94, 22.1181, 21.5089, 0.03487, 24.4461, 2.17015e-19, 0.0000000E+000
 385.51,-0.40821,-0.0586382, 627.976, 616.172, 22.1382, 21.5207, 0.03487, 24.4461, 2.17015e-19, 0.0000000E+000
 387.01,-0.40821,-0.0586382, 628.136, 616.406, 22.1585, 21.5328, 0.03487, 24.4461, 2.17015e-19, 0.0000000E+000
 388.51,-0.40821,-0.0586382, 628.288, 616.628, 22.1791, 21.545, 0.03487, 24.4461, 2.17015e-19, 0.0000000E+000
 390.01,-0.40821,-0.0586382, 628.433, 616.847, 22.1998, 21.5574, 0.03487, 24.4461, 2.17015e-19, 0.0000000E+000
 391.51,-0.40821,-0.0586382, 628.578, 617.069, 22.2208, 21.5699, 0.03487, 24.4461, 2.17015e-19, 0.0000000E+000
 393.01,-0.40821,-0.0586382, 628.72, 617.275, 22.2421, 21.5826, 0.03487, 24.4461, 2.17015e-19, 0.0000000E+000
 394.51,-0.40821,-0.0586382, 628.864, 617.487, 22.2635, 21.5954, 0.03487, 24.4461, 2.17015e-19, 0.0000000E+000
 396.01,-0.40821,-0.0586382, 629.006, 617.693, 22.2853, 21.6084, 0.03487, 24.4461, 2.17015e-19, 0.0000000E+000
 397.51,-0.40821,-0.0586382, 629.127, 617.886, 22.3072, 21.6216, 0.03487, 24.4461, 2.17015e-19, 0.0000000E+000
 399.01,-0.40821,-0.0586382, 629.263, 618.085, 22.3294, 21.6349, 0.03487, 24.4461, 2.17015e-19, 0.0000000E+000
 400.51,-0.40821,-0.0586382, 629.398, 618.283, 22.3519, 21.6484, 0.03487, 24.4461, 2.17015e-19, 0.0000000E+000
 402.01,-0.40821,-0.0586382, 629.524, 618.466, 22.3746, 21.662, 0.03487, 24.4461, 2.17015e-19, 0.0000000E+000
 403.51,-0.40821,-0.0586382, 629.652, 618.654, 22.3976, 21.6759, 0.03487, 24.4461, 2.17015e-19, 0.0000000E+000
 405.01,-0.40821,-0.0586382, 629.776, 618.84, 22.4209, 21.6899, 0.03487, 24.4461, 2.17015e-19, 0.0000000E+000
 406.51,-0.40821,-0.0586382, 629.887, 619.013, 22.4444, 21.7041, 0.03487, 24.4461, 2.17015e-19, 0.0000000E+000
 408.01,-0.40821,-0.0586382, 630.01, 619.193, 22.4681, 21.7184, 0.03487, 24.4461, 2.17015e-19, 0.0000000E+000
 409.51,-0.40821,-0.0586382, 630.13, 619.368, 22.4922, 21.7329, 0.03487, 24.4461, 2.17015e-19, 0.0000000E+000
 411.01,-0.40821,-0.0586382, 630.248, 619.541, 22.5165, 21.7476, 0.03487, 24.4461, 2.17015e-19, 0.0000000E+000
 412.51,-0.40821,-0.0586382, 630.359, 619.703, 22.5411, 21.7625, 0.03487, 24.4461, 2.17015e-19, 0.0000000E+000
 414.01,-0.40821,-0.0586382, 630.464, 619.868, 22.5659, 21.7776, 0.03487, 24.4461, 2.17015e-19, 0.0000000E+000
 415.51,-0.40821,-0.0586382, 630.576, 620.036, 22.591, 21.7928, 0.03487, 24.4461, 2.17015e-19, 0.0000000E+000
 417.01,-0.40821,-0.0586382, 630.683, 620.192, 22.6164, 21.8083, 0.03487, 24.4461, 2.17015e-19, 0.0000000E+000
 418.51,-0.40821,-0.0586382, 630.79, 620.349, 22.6421, 21.8239, 0.03487, 24.4461, 2.17015e-19, 0.0000000E+000
 420.01,-0.40821,-0.0586382, 630.899, 620.508, 22.6681, 21.8397, 0.03487, 24.4461, 2.17015e-19, 0.0000000E+000
 421.51,-0.40821,-0.0586382, 631.003, 620.66, 22.6943, 21.8557, 0.03487, 24.4461, 2.17015e-19, 0.0000000E+000
 423.01,-0.40821,-0.0586382, 631.103, 620.806, 22.7208, 21.8719, 0.03487, 24.4461, 2.17015e-19, 0.0000000E+000
 424.51,-0.40821,-0.0586382, 631.194, 620.954, 22.7476, 21.8882, 0.03487, 24.4461, 2.17015e-19, 0.0000000E+000
 426.01,-0.40821,-0.0586382, 631.295, 621.102, 22.7747, 21.9048, 0.03487, 24.4461, 2.17015e-19, 0.0000000E+000
 427.51,-0.40821,-0.0586382, 631.397, 621.251, 22.8021, 21.9216, 0.03487, 24.4461, 2.17015e-19, 0.0000000E+000
 429.01,-0.40821,-0.0586382, 631.491, 621.388, 22.8298, 21.9386, 0.03487, 24.4461, 2.17015e-19, 0.0000000E+000
 430.51,-0.40821,-0.0586382, 631.585, 621.526, 22.8578, 21.9557, 0.03487, 24.4461, 2.17015e-19, 0.0000000E+000
 432.01,-0.40821,-0.0586382, 631.681, 621.665, 22.886, 21.9731, 0.03487, 24.4461, 2.17015e-19, 0.0000000E+000
 433.51,-0.40821,-0.0586382, 631.775, 621.804, 22.9146, 21.9906, 0.03487, 24.4461, 2.17015e-19, 0.0000000E+000
 435.01,-0.40821,-0.0586382, 631.856, 621.936, 22.9434, 22.0084, 0.03487, 24.4461, 2.17015e-19, 0.0000000E+000
 436.51,-0.40821,-0.0586382, 631.944, 622.065, 22.9726, 22.0264, 0.03487, 24.4461, 2.17015e-19, 0.0000000E+000
 438.01,-0.40821,-0.0586382, 632.035, 622.198, 23.002, 22.0446, 0.03487, 24.4461, 2.17015e-19, 0.0000000E+000
 439.51,-0.40821,-0.0586382, 632.123, 622.326, 23.0317, 22.063, 0.03487, 24.4461, 2.17015e-19, 0.0000000E+000
 441.01,-0.40821,-0.0586382, 632.211, 622.455, 23.0618, 22.0816, 0.03487, 24.4461, 2.17015e-19, 0.0000000E+000
 442.51,-0.40821,-0.0586382, 632.294, 622.576, 23.0921, 22.1004, 0.03487, 24.4461, 2.17015e-19, 0.0000000E+000
 444.01,-0.40821,-0.0586382, 632.375, 622.695, 23.1227, 22.1194, 0.03487, 24.4461, 2.17015e-19, 0.0000000E+000
 445.51,-0.40821,-0.0586382, 632.459, 622.818, 23.1536, 22.1387, 0.03487, 24.4461, 2.17015e-19, 0.0000000E+000
 447.01,-0.40821,-0.0586382, 632.533, 622.939, 23.1849, 22.1581, 0.03487, 24.4461, 2.17015e-19, 0.0000000E+000
 448.51,-0.40821,-0.0586382, 632.616, 623.062, 23.2164, 22.1778, 0.03487, 24.4461, 2.17015e-19, 0.0000000E+000
 450.01,-0.40821,-0.0586382, 632.693, 623.173, 23.2482, 22.1977, 0.03487, 24.4461, 2.17015e-19, 0.0000000E+000
 451.51,-0.40821,-0.0586382, 632.77, 623.287, 23.2803, 22.2178, 0.03487, 24.4461, 2.17015e-19, 0.0000000E+000
 453.01,-0.40821,-0.0586382, 632.851, 623.404, 23.3128, 22.2381, 0.03487, 24.4461, 2.17015e-19, 0.0000000E+000
 454.51,-0.40821,-0.0586382, 632.928, 623.517, 23.3455, 22.2587, 0.03487, 24.4461, 2.17015e-19, 0.0000000E+000
 456.01,-0.40821,-0.0586382, 633.003, 623.628, 23.3785, 22.2795, 0.03487, 24.4461, 2.17015e-19, 0.0000000E+000
 457.51,-0.40821,-0.0586382, 633.079, 623.739, 23.4118, 22.3005, 0.03487, 24.4461, 2.17015e-19, 0.0000000E+000
 459.01,-0.40821,-0.0586382, 633.148, 623.842, 23.4454, 22.3217, 0.03487, 24.4461, 2.17015e-19, 0.0000000E+000
 460.51,-0.40821,-0.0586382, 633.213, 623.948, 23.4794, 22.3432, 0.03487, 24.4461, 2.17015e-19, 0.0000000E+000
 462.01,-0.40821,-0.0586382, 633.288, 624.057, 23.5136, 22.3649, 0.03487, 24.4461, 2.17015e-19, 0.0000000E+000
 463.51,-0.40821,-0.0586382, 633.362, 624.165, 23.5481, 22.3868, 0.03487, 24.4461, 2.17015e-19, 0.0000000E+000
 465.01,-0.40821,-0.0586382, 633.434, 624.271, 23.5829, 22.409, 0.03487, 24.4461, 2.17015e-19, 0.0000000E+000
 466.51,-0.40821,-0.0586382, 633.5, 624.368, 23.618, 22.4313, 0.03487, 24.4461, 2.17015e-19, 0.0000000E+000
 468.01,-0.40821,-0.0586382, 633.568, 624.466, 23.6535, 22.4539, 0.03487, 24.4461, 2.17015e-19, 0.0000000E+000
 469.51,-0.40821,-0.0586382, 633.637, 624.567, 23.6892, 22.4768, 0.03487, 24.4461, 2.17015e-19, 0.0000000E+000
 471.01,-0.40821,-0.0586382, 633.706, 624.669, 23.7252, 22.4999, 0.03487, 24.4461, 2.17015e-19, 0.0000000E+000
 472.51,-0.40821,-0.0586382, 633.774, 624.768, 23.7615, 22.5232, 0.03487, 24.4461, 2.17015e-19, 0.0000000E+000
 474.01,-0.40821,-0.0586382, 633.83, 624.863, 23.7981, 22.5468, 0.03487, 24.4461, 2.17015e-19, 0.0000000E+000
 475.51,-0.40821,-0.0586382, 633.894, 624.957, 23.835, 22.5706, 0.03487, 24.4461, 2.17015e-19, 0.0000000E+000
 477.01,-0.40821,-0.0586382, 633.959, 625.052, 23.8722, 22.5946, 0.03487, 24.4461, 2.17015e-19, 0.0000000E+000
 478.51,-0.40821,-0.0586382, 634.025, 625.148, 23.9097, 22.6189, 0.03487, 24.4461, 2.17015e-19, 0.0000000E+000
 480.01,-0.40821,-0.0586382, 634.087, 625.239, 23.9475, 22.6434, 0.03487, 24.4461, 2.17015e-19, 0.0000000E+000
 481.51,-0.40821,-0.0586382, 634.151, 625.332, 23.9856, 22.6681, 0.03487, 24.4461, 2.17015e-19, 0.0000000E+000
 483.01,-0.40821,-0.0586382, 634.215, 625.426, 24.0239, 22.6931, 0.03487, 24.4461, 2.17015e-19, 0.0000000E+000
 484.51,-0.40821,-0.0586382, 634.277, 625.516, 24.0626, 22.7184, 0.03487, 24.4461, 2.17015e-19, 0.0000000E+000
 486.01,-0.40821,-0.0586382, 634.333, 625.599, 24.1016, 22.7439, 0.03487, 24.4461, 2.17015e-19, 0.0000000E+000
 487.51,-0.40821,-0.0586382, 634.392, 625.685, 24.1408, 22.7696, 0.03487, 24.4461, 2.17015e-19, 0.0000000E+000
 489.01,-0.40821,-0.0586382, 634.452, 625.773, 24.1804, 22.7955, 0.03487, 24.4461, 2.17015e-19, 0.0000000E+000
 490.51,-0.40821,-0.0586382, 634.504, 625.86, 24.2202, 22.8218, 0.03487, 24.4461, 2.17015e-19, 0.0000000E+000
 492.01,-0.40821,-0.0586382, 634.564, 625.949, 24.2603, 22.8482, 0.03487, 24.4461, 2.17015e-19, 0.0000000E+000
 493.51,-0.40821,-0.0586382, 634.623, 626.036, 24.3007, 22.8749, 0.03487, 24.4461, 2.17015e-19, 0.0000000E+000
 495.01,-0.40821,-0.0586382, 634.68, 626.119, 24.3414, 22.9019, 0.03487, 24.4461, 2.17015e-19, 0.0000000E+000
 496.51,-0.40821,-0.0586382, 634.732, 626.196, 24.3823, 22.9291, 0.03487, 24.4461, 2.17015e-19, 0.0000000E+000
 498.01,-0.40821,-0.0586382, 634.789, 626.279, 24.4236, 22.9565, 0.03487, 24.4461, 2.17015e-19, 0.0000000E+000
 499.51,-0.40821,-0.0586382, 634.847, 626.363, 24.4651, 22.9842, 0.03487, 24.4461, 2.17015e-19, 0.0000000E+000
 500,-0.40821,-0.0586382, 634.865, 626.391, 24.4789, 22.9934, 0.03487, 24.4461, 2.17015e-19, 0.0000000E+000