File: PMMA/Calibration_Results/NIST_FSRI/All_Props/DBI_1[NIST_FSRI]_Gasification_q50_R3_Mass.csv
s,kg/m2,,C,C,C,C,m,kg/m2,kg/m2,kg/m2/s
Time,"SD","MF","TW1","TSB1","TAL1","TB1","DX1","SD1","SD_11","BR1"
 0.0000000E+000, 6.96199, 1.00007, 20.9, 20.9, 20.9, 20.9, 0.041108, 31.8163, 7.3702, 0.0000000E+000
 1.5, 6.96199, 1.00007, 126.574, 20.9, 20.9, 20.9, 0.041108, 31.8163, 7.3702, 1.73614e-11
 3.01, 6.96199, 1.00007, 174.003, 20.9, 20.9, 20.9, 0.041108, 31.8163, 7.3702, 2.95102e-09
 4.51, 6.96199, 1.00007, 208.547, 20.9, 20.9, 20.9, 0.041108, 31.8163, 7.3702, 6.50683e-08
 6.01, 6.96199, 1.00007, 236.056, 20.9, 20.9, 20.9, 0.041108, 31.8163, 7.3702, 5.59807e-07
 7.51, 6.96198, 1.00007, 259.16, 20.9, 20.9, 20.9, 0.041108, 31.8163, 7.37019, 2.85064e-06
 9.01, 6.96197, 1.00007, 279.014, 20.9001, 20.9, 20.9, 0.041108, 31.8163, 7.37019, 1.03148e-05
 10.51, 6.96194, 1.00006, 296.453, 20.9006, 20.9, 20.9, 0.041108, 31.8163, 7.37016, 2.95799e-05
 12.01, 6.96186, 1.00005, 311.903, 20.9023, 20.9, 20.9, 0.0411079, 31.8162, 7.37008, 7.13272e-05
 13.51, 6.96168, 1.00003, 325.717, 20.907, 20.9, 20.9, 0.0411078, 31.816, 7.36992, 0.000150781
 15.01, 6.96132, 0.999974, 338.123, 20.9178, 20.9, 20.9, 0.0411075, 31.8157, 7.3696, 0.000287074
 16.51, 6.96069, 0.999883, 349.266, 20.9391, 20.9, 20.9, 0.041107, 31.8151, 7.36902, 0.000501211
 18, 6.95963, 0.999732, 359.23, 20.9766, 20.9, 20.9, 0.0411062, 31.8142, 7.36805, 0.000812277
 19.5, 6.958, 0.999497, 368.13, 21.0372, 20.9, 20.9, 0.0411049, 31.8126, 7.36653, 0.0012362
 21, 6.95561, 0.999154, 376.051, 21.129, 20.9, 20.9, 0.041103, 31.8104, 7.36427, 0.00178159
 22.5, 6.95228, 0.998676, 383.021, 21.2602, 20.9, 20.9, 0.0411003, 31.8072, 7.36111, 0.00244326
 24, 6.94785, 0.99804, 389.103, 21.4391, 20.9, 20.9, 0.0410967, 31.803, 7.35688, 0.00320634
 25.5, 6.9422, 0.997228, 394.368, 21.674, 20.9, 20.9, 0.0410921, 31.7976, 7.35144, 0.00404705
 27, 6.93524, 0.996227, 398.895, 21.9725, 20.9, 20.9, 0.0410864, 31.7908, 7.3447, 0.00493744
 28.5, 6.92691, 0.995031, 402.771, 22.3419, 20.9, 20.9, 0.0410796, 31.7827, 7.3366, 0.00585001
 30, 6.91721, 0.993638, 406.081, 22.7884, 20.9, 20.9, 0.0410715, 31.7732, 7.32713, 0.00676059
 31.5, 6.90617, 0.992052, 408.906, 23.3176, 20.9, 20.9, 0.0410624, 31.7624, 7.31631, 0.00765004
 33, 6.89383, 0.990279, 411.322, 23.9341, 20.9, 20.9, 0.0410521, 31.7503, 7.30418, 0.00850518
 34.5, 6.88024, 0.988328, 413.394, 24.6414, 20.9, 20.9, 0.0410408, 31.7369, 7.2908, 0.0093182
 36, 6.86549, 0.986208, 415.179, 25.4423, 20.9, 20.9, 0.0410285, 31.7223, 7.27623, 0.0100851
 37.5, 6.84963, 0.98393, 416.724, 26.3386, 20.9, 20.9, 0.0410152, 31.7067, 7.26055, 0.0108044
 39, 6.83274, 0.981503, 418.07, 27.3315, 20.9, 20.9, 0.041001, 31.6899, 7.24383, 0.0114776
 40.5, 6.81488, 0.978939, 419.246, 28.4216, 20.9, 20.9, 0.0409861, 31.6722, 7.22613, 0.0121058
 42, 6.79613, 0.976244, 420.282, 29.6088, 20.9, 20.9, 0.0409703, 31.6536, 7.20752, 0.012692
 43.51, 6.77653, 0.97343, 421.202, 30.8972, 20.9, 20.9, 0.0409538, 31.6341, 7.18799, 0.0132415
 45.01, 6.75615, 0.970502, 422.02, 32.2823, 20.9, 20.9, 0.0409366, 31.6138, 7.16767, 0.0137553
 46.51, 6.73503, 0.967468, 422.751, 33.7588, 20.9, 20.9, 0.0409188, 31.5928, 7.14666, 0.0142351
 48.01, 6.71323, 0.964336, 423.408, 35.3329, 20.9, 20.9, 0.0409004, 31.5711, 7.12497, 0.0146851
 49.51, 6.69078, 0.961111, 423.999, 37.0138, 20.9, 20.9, 0.0408815, 31.5487, 7.10262, 0.0151069
 51.01, 6.66772, 0.957799, 424.533, 38.7997, 20.9, 20.9, 0.0408621, 31.5258, 7.07965, 0.015503
 52.51, 6.64408, 0.954404, 425.024, 40.6743, 20.9, 20.9, 0.0408422, 31.5022, 7.05611, 0.0158793
 54.01, 6.61991, 0.950932, 425.466, 42.6105, 20.9, 20.9, 0.0408218, 31.4781, 7.03202, 0.016231
 55.51, 6.59522, 0.947385, 425.878, 44.6008, 20.9, 20.9, 0.0408009, 31.4535, 7.00741, 0.016568
 57.01, 6.57005, 0.94377, 426.25, 46.6436, 20.9, 20.9, 0.0407797, 31.4284, 6.98232, 0.0168834
 58.51, 6.54442, 0.940088, 426.601, 48.7365, 20.9, 20.9, 0.0407581, 31.4029, 6.95676, 0.0171882
 60.01, 6.51835, 0.936343, 426.917, 50.8766, 20.9, 20.9, 0.0407361, 31.3769, 6.93076, 0.0174732
 61.51, 6.49186, 0.932538, 427.221, 53.0612, 20.9, 20.9, 0.0407137, 31.3505, 6.90434, 0.0177512
 63.01, 6.46497, 0.928675, 427.495, 55.2882, 20.9, 20.9, 0.040691, 31.3236, 6.87751, 0.0180122
 64.51, 6.4377, 0.924758, 427.755, 57.5563, 20.9, 20.9, 0.040668, 31.2964, 6.8503, 0.018264
 66.01, 6.41006, 0.920787, 427.999, 59.8656, 20.9, 20.9, 0.0406446, 31.2688, 6.82272, 0.0185075
 67.51, 6.38207, 0.916766, 428.223, 62.2143, 20.9, 20.9, 0.040621, 31.2409, 6.79478, 0.0187383
 69.01, 6.35374, 0.912697, 428.439, 64.5989, 20.9, 20.9, 0.040597, 31.2126, 6.7665, 0.0189636
 70.51, 6.32507, 0.908579, 428.643, 67.0168, 20.9, 20.9, 0.0405728, 31.184, 6.73789, 0.0191827
 72.01, 6.29609, 0.904415, 428.83, 69.4653, 20.9, 20.9, 0.0405483, 31.1551, 6.70895, 0.0193908
 73.5, 6.2668, 0.900208, 429.006, 71.9258, 20.9, 20.9, 0.0405238, 31.126, 6.67991, 0.0195908
 75, 6.23721, 0.895957, 429.187, 74.4296, 20.9, 20.9, 0.0404988, 31.0965, 6.65037, 0.0197947
 76.5, 6.20732, 0.891664, 429.349, 76.9584, 20.9, 20.9, 0.0404735, 31.0666, 6.62053, 0.0199867
 78, 6.17715, 0.88733, 429.501, 79.5109, 20.9, 20.9, 0.040448, 31.0365, 6.59041, 0.0201728
 79.5, 6.1467, 0.882957, 429.656, 82.0857, 20.9, 20.9, 0.0404223, 31.0061, 6.56001, 0.0203597
 81, 6.11598, 0.878543, 429.802, 84.6815, 20.9, 20.9, 0.0403963, 30.9754, 6.52933, 0.0205428
 82.5, 6.08499, 0.874091, 429.937, 87.2976, 20.9, 20.9, 0.0403701, 30.9445, 6.49838, 0.0207189
 84, 6.05373, 0.869602, 430.065, 89.9332, 20.9, 20.9, 0.0403437, 30.9133, 6.46717, 0.0208901
 85.5, 6.02222, 0.865076, 430.201, 92.5881, 20.9, 20.9, 0.0403171, 30.8818, 6.4357, 0.0210659
 87, 5.99045, 0.860512, 430.327, 95.2619, 20.9, 20.9, 0.0402902, 30.8501, 6.40397, 0.0212371
 88.5, 5.95843, 0.855911, 430.446, 97.9554, 20.9, 20.9, 0.0402631, 30.8181, 6.37199, 0.0214041
 90, 5.92616, 0.851276, 430.558, 100.67, 20.9, 20.9, 0.0402359, 30.7859, 6.33976, 0.021567
 91.5, 5.89364, 0.846605, 430.673, 103.412, 20.9, 20.9, 0.0402084, 30.7534, 6.30729, 0.0217317
 93, 5.86087, 0.841898, 430.792, 106.177, 20.9, 20.9, 0.0401807, 30.7207, 6.27456, 0.0219003
 94.5, 5.82786, 0.837155, 430.898, 108.963, 20.9, 20.9, 0.0401528, 30.6877, 6.24159, 0.0220612
 96, 5.7946, 0.832379, 431.001, 111.768, 20.9, 20.9, 0.0401247, 30.6545, 6.20837, 0.022221
 97.5, 5.76111, 0.827568, 431.1, 114.589, 20.9, 20.9, 0.0400963, 30.621, 6.17492, 0.0223783
 99, 5.72738, 0.822722, 431.213, 117.425, 20.9, 20.9, 0.0400678, 30.5873, 6.14123, 0.0225462
 100.5, 5.6934, 0.81784, 431.313, 120.274, 20.9, 20.9, 0.0400391, 30.5534, 6.10728, 0.0227065
 102, 5.65918, 0.812925, 431.408, 123.133, 20.9, 20.9, 0.0400102, 30.5192, 6.0731, 0.022865
 103.5, 5.62472, 0.807975, 431.502, 126.001, 20.9, 20.9, 0.039981, 30.4848, 6.03869, 0.023023
 105, 5.59002, 0.802991, 431.598, 128.875, 20.9001, 20.9, 0.0399517, 30.4502, 6.00403, 0.0231828
 106.5, 5.55508, 0.797972, 431.702, 131.752, 20.9001, 20.9, 0.0399222, 30.4152, 5.96913, 0.0233508
 108, 5.51989, 0.792917, 431.793, 134.63, 20.9001, 20.9, 0.0398924, 30.3801, 5.93398, 0.0235106
 109.5, 5.48446, 0.787828, 431.882, 137.504, 20.9001, 20.9, 0.0398625, 30.3447, 5.89859, 0.0236709
 111, 5.4488, 0.782704, 431.969, 140.369, 20.9001, 20.9, 0.0398323, 30.3091, 5.86297, 0.023831
 112.5, 5.41288, 0.777545, 432.069, 143.216, 20.9001, 20.9, 0.0398019, 30.2732, 5.82709, 0.0239996
 114, 5.37671, 0.77235, 432.161, 146.046, 20.9002, 20.9, 0.0397714, 30.2371, 5.79097, 0.0241671
 115.5, 5.3403, 0.767119, 432.246, 148.862, 20.9002, 20.9, 0.0397406, 30.2007, 5.75459, 0.0243301
 117, 5.30363, 0.761852, 432.332, 151.666, 20.9002, 20.9, 0.0397096, 30.1641, 5.71797, 0.0244948
 118.5, 5.26673, 0.75655, 432.416, 154.459, 20.9002, 20.9, 0.0396784, 30.1272, 5.6811, 0.0246599
 120, 5.22956, 0.751211, 432.514, 157.243, 20.9003, 20.9, 0.039647, 30.0901, 5.64398, 0.0248358
 121.5, 5.19213, 0.745835, 432.601, 160.018, 20.9003, 20.9, 0.0396153, 30.0527, 5.60659, 0.0250069
 123, 5.15445, 0.740422, 432.682, 162.784, 20.9004, 20.9, 0.0395835, 30.0151, 5.56896, 0.0251747
 124.5, 5.11652, 0.734973, 432.764, 165.543, 20.9004, 20.9001, 0.0395514, 29.9772, 5.53107, 0.025345
 126, 5.07832, 0.729487, 432.856, 168.294, 20.9005, 20.9001, 0.0395191, 29.939, 5.49292, 0.0255217
 127.5, 5.03986, 0.723962, 432.942, 171.037, 20.9006, 20.9001, 0.0394866, 29.9006, 5.4545, 0.0256987
 129, 5.00114, 0.718399, 433.024, 173.774, 20.9007, 20.9001, 0.0394538, 29.8619, 5.41582, 0.025874
 130.5, 4.96215, 0.712799, 433.101, 176.503, 20.9007, 20.9001, 0.0394209, 29.823, 5.37687, 0.026047
 132, 4.9229, 0.707161, 433.18, 179.226, 20.9008, 20.9001, 0.0393877, 29.7838, 5.33767, 0.0262229
 133.5, 4.88338, 0.701484, 433.272, 181.943, 20.901, 20.9001, 0.0393543, 29.7443, 5.29819, 0.0264089
 135, 4.84358, 0.695767, 433.351, 184.653, 20.9011, 20.9001, 0.0393207, 29.7046, 5.25845, 0.026589
 136.5, 4.80352, 0.690012, 433.428, 187.356, 20.9012, 20.9002, 0.0392868, 29.6645, 5.21842, 0.026769
 138, 4.76319, 0.684218, 433.502, 190.054, 20.9013, 20.9002, 0.0392527, 29.6243, 5.17813, 0.0269474
 139.5, 4.72258, 0.678385, 433.584, 192.745, 20.9015, 20.9002, 0.0392183, 29.5837, 5.13758, 0.0271334
 141, 4.68168, 0.672511, 433.668, 195.431, 20.9017, 20.9002, 0.0391838, 29.5428, 5.09673, 0.0273236
 142.5, 4.64051, 0.666597, 433.742, 198.11, 20.9019, 20.9003, 0.039149, 29.5017, 5.0556, 0.0275089
 144, 4.59906, 0.660642, 433.815, 200.783, 20.9021, 20.9003, 0.0391139, 29.4603, 5.0142, 0.0276943
 145.5, 4.55733, 0.654648, 433.885, 203.45, 20.9023, 20.9003, 0.0390786, 29.4186, 4.97252, 0.0278791
 147, 4.51532, 0.648613, 433.972, 206.111, 20.9025, 20.9004, 0.0390431, 29.3767, 4.93055, 0.0280781
 148.5, 4.473, 0.642535, 434.046, 208.765, 20.9028, 20.9004, 0.0390074, 29.3344, 4.88828, 0.0282704
 150, 4.43041, 0.636415, 434.117, 211.414, 20.9031, 20.9005, 0.0389713, 29.2919, 4.84573, 0.0284626
 151.5, 4.38752, 0.630255, 434.186, 214.055, 20.9034, 20.9005, 0.0389351, 29.249, 4.80289, 0.0286549
 153, 4.34434, 0.624052, 434.256, 216.691, 20.9037, 20.9006, 0.0388986, 29.2059, 4.75977, 0.028849
 154.5, 4.30085, 0.617806, 434.339, 219.319, 20.9041, 20.9007, 0.0388618, 29.1625, 4.71633, 0.0290571
 156, 4.25707, 0.611516, 434.408, 221.941, 20.9045, 20.9007, 0.0388248, 29.1187, 4.67259, 0.0292556
 157.5, 4.21298, 0.605183, 434.476, 224.555, 20.9049, 20.9008, 0.0387875, 29.0747, 4.62856, 0.0294566
 159, 4.16859, 0.598807, 434.541, 227.163, 20.9053, 20.9009, 0.03875, 29.0303, 4.58422, 0.0296573
 160.51, 4.1239, 0.592386, 434.62, 229.78, 20.9058, 20.901, 0.038712, 28.9854, 4.53928, 0.0298703
 162.01, 4.07888, 0.58592, 434.691, 232.371, 20.9063, 20.9011, 0.0386739, 28.9404, 4.49431, 0.0300808
 163.51, 4.03355, 0.579408, 434.755, 234.955, 20.9068, 20.9012, 0.0386356, 28.8952, 4.44903, 0.0302879
 165.01, 3.98791, 0.572852, 434.821, 237.53, 20.9074, 20.9013, 0.038597, 28.8496, 4.40344, 0.0304991
 166.51, 3.94195, 0.56625, 434.887, 240.096, 20.908, 20.9015, 0.0385581, 28.8037, 4.35753, 0.030711
 168.01, 3.89566, 0.5596, 434.965, 242.653, 20.9086, 20.9016, 0.038519, 28.7574, 4.3113, 0.0309363
 169.51, 3.84903, 0.552903, 435.029, 245.201, 20.9093, 20.9018, 0.0384796, 28.7108, 4.26472, 0.0311539
 171.01, 3.80209, 0.546159, 435.09, 247.738, 20.91, 20.9019, 0.0384399, 28.6639, 4.21783, 0.0313715
 172.51, 3.75481, 0.539368, 435.153, 250.265, 20.9108, 20.9021, 0.0383999, 28.6167, 4.1706, 0.0315931
 174.01, 3.70719, 0.532527, 435.227, 252.781, 20.9116, 20.9023, 0.0383597, 28.5692, 4.12304, 0.0318245
 175.51, 3.65922, 0.525637, 435.294, 255.285, 20.9125, 20.9025, 0.0383191, 28.5212, 4.07513, 0.0320556
 177.01, 3.61091, 0.518697, 435.353, 257.777, 20.9134, 20.9027, 0.0382783, 28.473, 4.02687, 0.0322821
 178.51, 3.56226, 0.511708, 435.414, 260.256, 20.9143, 20.9029, 0.0382371, 28.4244, 3.97827, 0.032513
 180.01, 3.51325, 0.504669, 435.482, 262.721, 20.9153, 20.9032, 0.0381957, 28.3754, 3.92933, 0.0327491
 181.51, 3.46389, 0.497578, 435.548, 265.173, 20.9164, 20.9034, 0.038154, 28.3261, 3.88002, 0.0329904
 183.01, 3.41416, 0.490435, 435.609, 267.61, 20.9175, 20.9037, 0.0381119, 28.2765, 3.83035, 0.0332294
 184.51, 3.36408, 0.483241, 435.665, 270.032, 20.9186, 20.904, 0.0380696, 28.2264, 3.78033, 0.0334648
 186.01, 3.31364, 0.475995, 435.726, 272.437, 20.9198, 20.9043, 0.038027, 28.1761, 3.72995, 0.0337079
 187.51, 3.26283, 0.468696, 435.796, 274.826, 20.9211, 20.9046, 0.037984, 28.1253, 3.67919, 0.0339587
 189.01, 3.21164, 0.461343, 435.857, 277.187, 20.9224, 20.905, 0.0379407, 28.0742, 3.62807, 0.0342067
 190.51, 3.16009, 0.453938, 435.911, 279.529, 20.9238, 20.9053, 0.0378971, 28.0227, 3.57657, 0.0344503
 192.01, 3.10817, 0.44648, 435.968, 281.85, 20.9253, 20.9057, 0.0378532, 27.9708, 3.52471, 0.034696
 193.51, 3.05587, 0.438967, 436.037, 284.153, 20.9268, 20.9061, 0.037809, 27.9186, 3.47247, 0.0349523
 195.01, 3.00319, 0.4314, 436.093, 286.436, 20.9284, 20.9066, 0.0377645, 27.866, 3.41985, 0.0352014
 196.51, 2.95014, 0.42378, 436.149, 288.7, 20.93, 20.907, 0.0377197, 27.813, 3.36686, 0.0354492
 198.01, 2.89672, 0.416106, 436.2, 290.943, 20.9317, 20.9075, 0.0376745, 27.7596, 3.3135, 0.0356939
 199.51, 2.84293, 0.408379, 436.266, 293.167, 20.9335, 20.908, 0.037629, 27.7059, 3.25977, 0.035948
 201.01, 2.78876, 0.400597, 436.321, 295.372, 20.9354, 20.9085, 0.0375832, 27.6518, 3.20566, 0.0361964
 202.51, 2.73422, 0.392762, 436.376, 297.556, 20.9374, 20.9091, 0.0375371, 27.5973, 3.15118, 0.0364435
 204.01, 2.67931, 0.384876, 436.424, 299.72, 20.9394, 20.9097, 0.0374907, 27.5424, 3.09633, 0.0366818
 205.51, 2.62404, 0.376936, 436.486, 301.86, 20.9415, 20.9103, 0.0374439, 27.4872, 3.04112, 0.0369289
 207.01, 2.56841, 0.368944, 436.542, 303.981, 20.9437, 20.911, 0.0373969, 27.4317, 2.98554, 0.0371719
 208.51, 2.51241, 0.360901, 436.595, 306.082, 20.9459, 20.9117, 0.0373496, 27.3757, 2.9296, 0.0374089
 210.01, 2.45607, 0.352807, 436.643, 308.167, 20.9483, 20.9124, 0.0373019, 27.3194, 2.87331, 0.0376388
 211.51, 2.39938, 0.344664, 436.697, 310.235, 20.9507, 20.9131, 0.037254, 27.2628, 2.81668, 0.0378689
 213.01, 2.34234, 0.336471, 436.756, 312.288, 20.9532, 20.9139, 0.0372058, 27.2058, 2.7597, 0.0380998
 214.51, 2.28497, 0.328229, 436.81, 314.329, 20.9558, 20.9147, 0.0371572, 27.1485, 2.70238, 0.0383236
 216.01, 2.22727, 0.319941, 436.858, 316.36, 20.9585, 20.9156, 0.0371085, 27.0908, 2.64473, 0.0385372
 217.51, 2.16925, 0.311607, 436.911, 318.381, 20.9613, 20.9165, 0.0370594, 27.0329, 2.58676, 0.0387487
 219.01, 2.11091, 0.303226, 436.972, 320.396, 20.9642, 20.9174, 0.0370101, 26.9746, 2.52847, 0.0389629
 220.51, 2.05226, 0.294802, 437.027, 322.406, 20.9671, 20.9184, 0.0369605, 26.916, 2.46988, 0.0391676
 222.01, 1.99332, 0.286334, 437.077, 324.413, 20.9702, 20.9194, 0.0369106, 26.8571, 2.41098, 0.0393615
 223.51, 1.93408, 0.277825, 437.136, 326.42, 20.9734, 20.9204, 0.0368605, 26.7979, 2.35178, 0.0395559
 225.01, 1.87455, 0.269274, 437.201, 328.43, 20.9766, 20.9215, 0.0368102, 26.7384, 2.2923, 0.0397494
 226.51, 1.81474, 0.260682, 437.262, 330.447, 20.98, 20.9227, 0.0367596, 26.6787, 2.23254, 0.039934
 228.01, 1.75467, 0.252053, 437.319, 332.474, 20.9835, 20.9239, 0.0367088, 26.6186, 2.1725, 0.0401071
 229.51, 1.69433, 0.243385, 437.392, 334.515, 20.987, 20.9251, 0.0366577, 26.5583, 2.11221, 0.040285
 231.01, 1.63373, 0.23468, 437.464, 336.574, 20.9907, 20.9264, 0.0366065, 26.4978, 2.05165, 0.0404571
 232.51, 1.57288, 0.225939, 437.536, 338.655, 20.9945, 20.9277, 0.036555, 26.437, 1.99084, 0.0406213
 234.01, 1.51179, 0.217164, 437.611, 340.762, 20.9984, 20.9291, 0.0365033, 26.3759, 1.92978, 0.0407794
 235.51, 1.45045, 0.208354, 437.701, 342.9, 21.0024, 20.9305, 0.0364515, 26.3146, 1.86849, 0.0409405
 237.01, 1.38889, 0.19951, 437.793, 345.073, 21.0065, 20.932, 0.0363994, 26.2531, 1.80696, 0.0410965
 238.51, 1.32709, 0.190633, 437.886, 347.286, 21.0107, 20.9335, 0.0363471, 26.1913, 1.74521, 0.0412433
 240.01, 1.26508, 0.181725, 437.999, 349.542, 21.0151, 20.9351, 0.0362947, 26.1293, 1.68323, 0.0413935
 241.51, 1.20284, 0.172785, 438.117, 351.848, 21.0195, 20.9368, 0.036242, 26.0671, 1.62103, 0.0415396
 243.01, 1.1404, 0.163815, 438.24, 354.211, 21.0241, 20.9385, 0.0361892, 26.0047, 1.55861, 0.0416767
 244.51, 1.07774, 0.154815, 438.387, 356.635, 21.0288, 20.9402, 0.0361362, 25.9421, 1.49599, 0.0418169
 246.01, 1.01488, 0.145785, 438.544, 359.128, 21.0336, 20.942, 0.036083, 25.8793, 1.43316, 0.0419526
 247.51, 0.951824, 0.136727, 438.713, 361.698, 21.0385, 20.9439, 0.0360297, 25.8163, 1.37013, 0.0420797
 249.01, 0.888571, 0.127641, 438.915, 364.352, 21.0436, 20.9459, 0.0359761, 25.753, 1.30691, 0.0422116
 250.51, 0.825128, 0.118527, 439.134, 367.101, 21.0487, 20.9479, 0.0359225, 25.6896, 1.2435, 0.0423352
 252.01, 0.761506, 0.109388, 439.386, 369.953, 21.0541, 20.9499, 0.0358687, 25.626, 1.17991, 0.0424563
 253.51, 0.697707, 0.100224, 439.667, 372.922, 21.0595, 20.9521, 0.0358147, 25.5623, 1.11614, 0.0425699
 255.01, 0.633742, 0.0910353, 439.993, 376.019, 21.065, 20.9543, 0.0357606, 25.4983, 1.0522, 0.0426796
 256.51, 0.569622, 0.0818246, 440.363, 379.259, 21.0707, 20.9565, 0.0357063, 25.4342, 0.9881, 0.0427789
 258.01, 0.50536, 0.0725936, 440.798, 382.659, 21.0765, 20.9589, 0.0356519, 25.37, 0.92386, 0.0428707
 259.51, 0.440975, 0.0633448, 441.302, 386.242, 21.0825, 20.9613, 0.0355975, 25.3056, 0.859493, 0.0429483
 261.01, 0.376488, 0.0540814, 441.894, 390.03, 21.0886, 20.9638, 0.0355429, 25.2411, 0.795021, 0.0430096
 262.51, 0.311927, 0.0448075, 442.6, 394.056, 21.0948, 20.9663, 0.0354883, 25.1766, 0.73047, 0.0430521
 264.01, 0.247331, 0.0355285, 443.444, 398.355, 21.1011, 20.9689, 0.0354336, 25.112, 0.665877, 0.0430657
 265.51, 0.182749, 0.0262513, 444.47, 402.974, 21.1076, 20.9716, 0.0353789, 25.0474, 0.601289, 0.0430445
 267.01, 0.118246, 0.0169856, 445.727, 407.975, 21.1142, 20.9744, 0.0353243, 24.9829, 0.536768, 0.0429749
 268.51, 0.0539119, 0.00774429, 447.294, 413.437, 21.121, 20.9772, 0.0352698, 24.9185, 0.472401, 0.0428382
 270.01,-0.010127,-0.00145471, 449.279, 419.471, 21.1278, 20.9802, 0.0352156, 24.8544, 0.408305, 0.0426077
 271.51,-0.0736911,-0.0105855, 451.846, 426.235, 21.1349, 20.9832, 0.0351617, 24.7908, 0.344651, 0.0422419
 273.01,-0.13655,-0.019615, 455.3, 434.029, 21.1421, 20.9863, 0.0351084, 24.7278, 0.281662, 0.0417133
 274.51,-0.198283,-0.0284828, 459.98, 443.198, 21.1494, 20.9894, 0.035056, 24.6658, 0.219711, 0.0408288
 276.01,-0.258165,-0.0370847, 466.701, 454.443, 21.1568, 20.9927, 0.035005, 24.6056, 0.159471, 0.0393821
 277.51,-0.314873,-0.0452306, 476.968, 469.191, 21.1644, 20.996, 0.0349564, 24.5482, 0.10213, 0.0368424
 279.01,-0.365419,-0.0524914, 494.414, 490.878, 21.1722, 20.9994, 0.0349126, 24.4964, 0.0502819, 0.0316529
 280.51,-0.401117,-0.0576194, 529.507, 528.961, 21.1801, 21.0029, 0.0348795, 24.4573, 0.0112115, 0.0184054
 282.01,-0.40821,-0.0586382, 568.062, 525.6, 21.1881, 21.0065, 0.03487, 24.4461, 4.27666e-13, 2.80484e-13
 283.51,-0.40821,-0.0586382, 580.04, 543.807, 21.1963, 21.0102, 0.03487, 24.4461, 1.22438e-13, 1.22365e-13
 285.01,-0.40821,-0.0586382, 586.983, 554.457, 21.2046, 21.014, 0.03487, 24.4461, 2.30766e-14, 2.8435e-14
 286.51,-0.40821,-0.0586382, 591.828, 561.846, 21.2131, 21.0178, 0.03487, 24.4461, 3.29011e-15, 4.55926e-15
 288.01,-0.40821,-0.0586382, 595.5, 567.427, 21.2217, 21.0218, 0.03487, 24.4461, 3.92241e-16, 5.80921e-16
 289.51,-0.40821,-0.0586382, 598.427, 571.866, 21.2305, 21.0258, 0.03487, 24.4461, 4.20727e-17, 6.45239e-17
 291.01,-0.40821,-0.0586382, 600.843, 575.522, 21.2395, 21.0299, 0.03487, 24.4461, 4.2817e-18, 6.65967e-18
 292.51,-0.40821,-0.0586382, 602.892, 578.613, 21.2486, 21.0342, 0.03487, 24.4461, 4.2945e-19, 6.67884e-19
 294.01,-0.40821,-0.0586382, 604.658, 581.28, 21.2578, 21.0385, 0.03487, 24.4461, 2.34335e-19, 0.0000000E+000
 295.51,-0.40821,-0.0586382, 606.212, 583.617, 21.2672, 21.0429, 0.03487, 24.4461, 2.34335e-19, 0.0000000E+000
 297.01,-0.40821,-0.0586382, 607.581, 585.676, 21.2768, 21.0475, 0.03487, 24.4461, 2.34335e-19, 0.0000000E+000
 298.51,-0.40821,-0.0586382, 608.802, 587.512, 21.2865, 21.0521, 0.03487, 24.4461, 2.34335e-19, 0.0000000E+000
 300.01,-0.40821,-0.0586382, 609.9, 589.172, 21.2963, 21.0568, 0.03487, 24.4461, 2.34335e-19, 0.0000000E+000
 301.51,-0.40821,-0.0586382, 610.917, 590.686, 21.3064, 21.0616, 0.03487, 24.4461, 2.34335e-19, 0.0000000E+000
 303.01,-0.40821,-0.0586382, 611.833, 592.075, 21.3165, 21.0665, 0.03487, 24.4461, 2.34335e-19, 0.0000000E+000
 304.51,-0.40821,-0.0586382, 612.691, 593.354, 21.3269, 21.0716, 0.03487, 24.4461, 2.34335e-19, 0.0000000E+000
 306.01,-0.40821,-0.0586382, 613.487, 594.542, 21.3374, 21.0767, 0.03487, 24.4461, 2.34335e-19, 0.0000000E+000
 307.51,-0.40821,-0.0586382, 614.227, 595.648, 21.3481, 21.0819, 0.03487, 24.4461, 2.34335e-19, 0.0000000E+000
 309.01,-0.40821,-0.0586382, 614.918, 596.682, 21.3589, 21.0873, 0.03487, 24.4461, 2.34335e-19, 0.0000000E+000
 310.51,-0.40821,-0.0586382, 615.563, 597.649, 21.3699, 21.0927, 0.03487, 24.4461, 2.34335e-19, 0.0000000E+000
 312.01,-0.40821,-0.0586382, 616.172, 598.561, 21.381, 21.0983, 0.03487, 24.4461, 2.34335e-19, 0.0000000E+000
 313.51,-0.40821,-0.0586382, 616.742, 599.419, 21.3923, 21.1039, 0.03487, 24.4461, 2.34335e-19, 0.0000000E+000
 315.01,-0.40821,-0.0586382, 617.283, 600.233, 21.4038, 21.1097, 0.03487, 24.4461, 2.34335e-19, 0.0000000E+000
 316.51,-0.40821,-0.0586382, 617.795, 601.004, 21.4154, 21.1156, 0.03487, 24.4461, 2.34335e-19, 0.0000000E+000
 318.01,-0.40821,-0.0586382, 618.297, 601.735, 21.4273, 21.1216, 0.03487, 24.4461, 2.34335e-19, 0.0000000E+000
 319.51,-0.40821,-0.0586382, 618.758, 602.431, 21.4392, 21.1277, 0.03487, 24.4461, 2.34335e-19, 0.0000000E+000
 321.01,-0.40821,-0.0586382, 619.197, 603.096, 21.4514, 21.1339, 0.03487, 24.4461, 2.34335e-19, 0.0000000E+000
 322.51,-0.40821,-0.0586382, 619.634, 603.732, 21.4637, 21.1403, 0.03487, 24.4461, 2.34335e-19, 0.0000000E+000
 324.01,-0.40821,-0.0586382, 620.033, 604.338, 21.4761, 21.1467, 0.03487, 24.4461, 2.34335e-19, 0.0000000E+000
 325.51,-0.40821,-0.0586382, 620.416, 604.916, 21.4888, 21.1533, 0.03487, 24.4461, 2.34335e-19, 0.0000000E+000
 327.01,-0.40821,-0.0586382, 620.793, 605.469, 21.5016, 21.16, 0.03487, 24.4461, 2.34335e-19, 0.0000000E+000
 328.51,-0.40821,-0.0586382, 621.141, 605.999, 21.5146, 21.1668, 0.03487, 24.4461, 2.34335e-19, 0.0000000E+000
 330.01,-0.40821,-0.0586382, 621.493, 606.513, 21.5278, 21.1737, 0.03487, 24.4461, 2.34335e-19, 0.0000000E+000
 331.51,-0.40821,-0.0586382, 621.816, 607.006, 21.5411, 21.1808, 0.03487, 24.4461, 2.34335e-19, 0.0000000E+000
 333.01,-0.40821,-0.0586382, 622.144, 607.485, 21.5546, 21.1879, 0.03487, 24.4461, 2.34335e-19, 0.0000000E+000
 334.51,-0.40821,-0.0586382, 622.441, 607.94, 21.5683, 21.1952, 0.03487, 24.4461, 2.34335e-19, 0.0000000E+000
 336.01,-0.40821,-0.0586382, 622.745, 608.382, 21.5821, 21.2026, 0.03487, 24.4461, 2.34335e-19, 0.0000000E+000
 337.51,-0.40821,-0.0586382, 623.037, 608.813, 21.5962, 21.2102, 0.03487, 24.4461, 2.34335e-19, 0.0000000E+000
 339.01,-0.40821,-0.0586382, 623.311, 609.229, 21.6104, 21.2178, 0.03487, 24.4461, 2.34335e-19, 0.0000000E+000
 340.51,-0.40821,-0.0586382, 623.585, 609.629, 21.6248, 21.2256, 0.03487, 24.4461, 2.34335e-19, 0.0000000E+000
 342.01,-0.40821,-0.0586382, 623.837, 610.018, 21.6394, 21.2335, 0.03487, 24.4461, 2.34335e-19, 0.0000000E+000
 343.51,-0.40821,-0.0586382, 624.099, 610.399, 21.6541, 21.2416, 0.03487, 24.4461, 2.34335e-19, 0.0000000E+000
 345.01,-0.40821,-0.0586382, 624.348, 610.763, 21.6691, 21.2498, 0.03487, 24.4461, 2.34335e-19, 0.0000000E+000
 346.51,-0.40821,-0.0586382, 624.581, 611.123, 21.6842, 21.2581, 0.03487, 24.4461, 2.34335e-19, 0.0000000E+000
 348.01,-0.40821,-0.0586382, 624.816, 611.466, 21.6995, 21.2665, 0.03487, 24.4461, 2.34335e-19, 0.0000000E+000
 349.51,-0.40821,-0.0586382, 625.047, 611.804, 21.7151, 21.2751, 0.03487, 24.4461, 2.34335e-19, 0.0000000E+000
 351.01,-0.40821,-0.0586382, 625.259, 612.132, 21.7308, 21.2838, 0.03487, 24.4461, 2.34335e-19, 0.0000000E+000
 352.51,-0.40821,-0.0586382, 625.478, 612.451, 21.7467, 21.2926, 0.03487, 24.4461, 2.34335e-19, 0.0000000E+000
 354.01,-0.40821,-0.0586382, 625.692, 612.764, 21.7628, 21.3016, 0.03487, 24.4461, 2.34335e-19, 0.0000000E+000
 355.51,-0.40821,-0.0586382, 625.884, 613.063, 21.7791, 21.3107, 0.03487, 24.4461, 2.34335e-19, 0.0000000E+000
 357.01,-0.40821,-0.0586382, 626.09, 613.364, 21.7956, 21.3199, 0.03487, 24.4461, 2.34335e-19, 0.0000000E+000
 358.51,-0.40821,-0.0586382, 626.286, 613.65, 21.8124, 21.3293, 0.03487, 24.4461, 2.34335e-19, 0.0000000E+000
 360.01,-0.40821,-0.0586382, 626.466, 613.932, 21.8293, 21.3388, 0.03487, 24.4461, 2.34335e-19, 0.0000000E+000
 361.51,-0.40821,-0.0586382, 626.655, 614.208, 21.8464, 21.3485, 0.03487, 24.4461, 2.34335e-19, 0.0000000E+000
 363.01,-0.40821,-0.0586382, 626.84, 614.478, 21.8638, 21.3583, 0.03487, 24.4461, 2.34335e-19, 0.0000000E+000
 364.51,-0.40821,-0.0586382, 627.022, 614.743, 21.8814, 21.3682, 0.03487, 24.4461, 2.34335e-19, 0.0000000E+000
 366.01,-0.40821,-0.0586382, 627.182, 614.995, 21.8992, 21.3783, 0.03487, 24.4461, 2.34335e-19, 0.0000000E+000
 367.51,-0.40821,-0.0586382, 627.357, 615.251, 21.9172, 21.3885, 0.03487, 24.4461, 2.34335e-19, 0.0000000E+000
 369.01,-0.40821,-0.0586382, 627.522, 615.492, 21.9355, 21.3989, 0.03487, 24.4461, 2.34335e-19, 0.0000000E+000
 370.51,-0.40821,-0.0586382, 627.687, 615.733, 21.954, 21.4095, 0.03487, 24.4461, 2.34335e-19, 0.0000000E+000
 372.01,-0.40821,-0.0586382, 627.835, 615.966, 21.9727, 21.4202, 0.03487, 24.4461, 2.34335e-19, 0.0000000E+000
 373.51,-0.40821,-0.0586382, 627.992, 616.195, 21.9916, 21.431, 0.03487, 24.4461, 2.34335e-19, 0.0000000E+000
 375.01,-0.40821,-0.0586382, 628.148, 616.423, 22.0108, 21.442, 0.03487, 24.4461, 2.34335e-19, 0.0000000E+000
 376.51,-0.40821,-0.0586382, 628.296, 616.64, 22.0303, 21.4532, 0.03487, 24.4461, 2.34335e-19, 0.0000000E+000
 378.01,-0.40821,-0.0586382, 628.437, 616.855, 22.05, 21.4645, 0.03487, 24.4461, 2.34335e-19, 0.0000000E+000
 379.51,-0.40821,-0.0586382, 628.58, 617.072, 22.0699, 21.4759, 0.03487, 24.4461, 2.34335e-19, 0.0000000E+000
 381.01,-0.40821,-0.0586382, 628.719, 617.274, 22.0901, 21.4876, 0.03487, 24.4461, 2.34335e-19, 0.0000000E+000
 382.51,-0.40821,-0.0586382, 628.861, 617.481, 22.1105, 21.4993, 0.03487, 24.4461, 2.34335e-19, 0.0000000E+000
 384.01,-0.40821,-0.0586382, 628.999, 617.684, 22.1312, 21.5113, 0.03487, 24.4461, 2.34335e-19, 0.0000000E+000
 385.51,-0.40821,-0.0586382, 629.12, 617.874, 22.1522, 21.5234, 0.03487, 24.4461, 2.34335e-19, 0.0000000E+000
 387.01,-0.40821,-0.0586382, 629.252, 618.069, 22.1734, 21.5357, 0.03487, 24.4461, 2.34335e-19, 0.0000000E+000
 388.51,-0.40821,-0.0586382, 629.385, 618.263, 22.1949, 21.5482, 0.03487, 24.4461, 2.34335e-19, 0.0000000E+000
 390.01,-0.40821,-0.0586382, 629.509, 618.444, 22.2167, 21.5608, 0.03487, 24.4461, 2.34335e-19, 0.0000000E+000
 391.51,-0.40821,-0.0586382, 629.634, 618.628, 22.2387, 21.5736, 0.03487, 24.4461, 2.34335e-19, 0.0000000E+000
 393.01,-0.40821,-0.0586382, 629.76, 618.812, 22.261, 21.5866, 0.03487, 24.4461, 2.34335e-19, 0.0000000E+000
 394.51,-0.40821,-0.0586382, 629.867, 618.984, 22.2836, 21.5997, 0.03487, 24.4461, 2.34335e-19, 0.0000000E+000
 396.01,-0.40821,-0.0586382, 629.987, 619.159, 22.3064, 21.613, 0.03487, 24.4461, 2.34335e-19, 0.0000000E+000
 397.51,-0.40821,-0.0586382, 630.106, 619.333, 22.3296, 21.6266, 0.03487, 24.4461, 2.34335e-19, 0.0000000E+000
 399.01,-0.40821,-0.0586382, 630.223, 619.504, 22.353, 21.6402, 0.03487, 24.4461, 2.34335e-19, 0.0000000E+000
 400.51,-0.40821,-0.0586382, 630.333, 619.664, 22.3767, 21.6541, 0.03487, 24.4461, 2.34335e-19, 0.0000000E+000
 402.01,-0.40821,-0.0586382, 630.443, 619.826, 22.4007, 21.6682, 0.03487, 24.4461, 2.34335e-19, 0.0000000E+000
 403.51,-0.40821,-0.0586382, 630.545, 619.991, 22.425, 21.6824, 0.03487, 24.4461, 2.34335e-19, 0.0000000E+000
 405.01,-0.40821,-0.0586382, 630.654, 620.15, 22.4495, 21.6969, 0.03487, 24.4461, 2.34335e-19, 0.0000000E+000
 406.51,-0.40821,-0.0586382, 630.758, 620.301, 22.4744, 21.7115, 0.03487, 24.4461, 2.34335e-19, 0.0000000E+000
 408.01,-0.40821,-0.0586382, 630.865, 620.458, 22.4996, 21.7263, 0.03487, 24.4461, 2.34335e-19, 0.0000000E+000
 409.51,-0.40821,-0.0586382, 630.969, 620.61, 22.525, 21.7413, 0.03487, 24.4461, 2.34335e-19, 0.0000000E+000
 411.01,-0.40821,-0.0586382, 631.07, 620.757, 22.5508, 21.7565, 0.03487, 24.4461, 2.34335e-19, 0.0000000E+000
 412.51,-0.40821,-0.0586382, 631.158, 620.901, 22.5768, 21.772, 0.03487, 24.4461, 2.34335e-19, 0.0000000E+000
 414.01,-0.40821,-0.0586382, 631.258, 621.047, 22.6032, 21.7876, 0.03487, 24.4461, 2.34335e-19, 0.0000000E+000
 415.51,-0.40821,-0.0586382, 631.358, 621.194, 22.6298, 21.8034, 0.03487, 24.4461, 2.34335e-19, 0.0000000E+000
 417.01,-0.40821,-0.0586382, 631.456, 621.337, 22.6568, 21.8194, 0.03487, 24.4461, 2.34335e-19, 0.0000000E+000
 418.51,-0.40821,-0.0586382, 631.545, 621.468, 22.684, 21.8356, 0.03487, 24.4461, 2.34335e-19, 0.0000000E+000
 420.01,-0.40821,-0.0586382, 631.64, 621.606, 22.7116, 21.852, 0.03487, 24.4461, 2.34335e-19, 0.0000000E+000
 421.51,-0.40821,-0.0586382, 631.734, 621.744, 22.7394, 21.8687, 0.03487, 24.4461, 2.34335e-19, 0.0000000E+000
 423.01,-0.40821,-0.0586382, 631.815, 621.876, 22.7676, 21.8855, 0.03487, 24.4461, 2.34335e-19, 0.0000000E+000
 424.51,-0.40821,-0.0586382, 631.901, 622.002, 22.7961, 21.9026, 0.03487, 24.4461, 2.34335e-19, 0.0000000E+000
 426.01,-0.40821,-0.0586382, 631.992, 622.135, 22.8248, 21.9199, 0.03487, 24.4461, 2.34335e-19, 0.0000000E+000
 427.51,-0.40821,-0.0586382, 632.08, 622.263, 22.8539, 21.9373, 0.03487, 24.4461, 2.34335e-19, 0.0000000E+000
 429.01,-0.40821,-0.0586382, 632.166, 622.39, 22.8833, 21.955, 0.03487, 24.4461, 2.34335e-19, 0.0000000E+000
 430.51,-0.40821,-0.0586382, 632.253, 622.517, 22.913, 21.973, 0.03487, 24.4461, 2.34335e-19, 0.0000000E+000
 432.01,-0.40821,-0.0586382, 632.332, 622.632, 22.943, 21.9911, 0.03487, 24.4461, 2.34335e-19, 0.0000000E+000
 433.51,-0.40821,-0.0586382, 632.413, 622.751, 22.9733, 22.0095, 0.03487, 24.4461, 2.34335e-19, 0.0000000E+000
 435.01,-0.40821,-0.0586382, 632.486, 622.872, 23.004, 22.0281, 0.03487, 24.4461, 2.34335e-19, 0.0000000E+000
 436.51,-0.40821,-0.0586382, 632.569, 622.993, 23.0349, 22.0469, 0.03487, 24.4461, 2.34335e-19, 0.0000000E+000
 438.01,-0.40821,-0.0586382, 632.65, 623.112, 23.0661, 22.0659, 0.03487, 24.4461, 2.34335e-19, 0.0000000E+000
 439.51,-0.40821,-0.0586382, 632.724, 623.219, 23.0977, 22.0852, 0.03487, 24.4461, 2.34335e-19, 0.0000000E+000
 441.01,-0.40821,-0.0586382, 632.803, 623.334, 23.1296, 22.1047, 0.03487, 24.4461, 2.34335e-19, 0.0000000E+000
 442.51,-0.40821,-0.0586382, 632.882, 623.45, 23.1617, 22.1244, 0.03487, 24.4461, 2.34335e-19, 0.0000000E+000
 444.01,-0.40821,-0.0586382, 632.956, 623.559, 23.1942, 22.1444, 0.03487, 24.4461, 2.34335e-19, 0.0000000E+000
 445.51,-0.40821,-0.0586382, 633.032, 623.669, 23.227, 22.1645, 0.03487, 24.4461, 2.34335e-19, 0.0000000E+000
 447.01,-0.40821,-0.0586382, 633.104, 623.774, 23.2601, 22.185, 0.03487, 24.4461, 2.34335e-19, 0.0000000E+000
 448.51,-0.40821,-0.0586382, 633.166, 623.879, 23.2935, 22.2056, 0.03487, 24.4461, 2.34335e-19, 0.0000000E+000
 450.01,-0.40821,-0.0586382, 633.238, 623.985, 23.3272, 22.2265, 0.03487, 24.4461, 2.34335e-19, 0.0000000E+000
 451.51,-0.40821,-0.0586382, 633.312, 624.093, 23.3613, 22.2476, 0.03487, 24.4461, 2.34335e-19, 0.0000000E+000
 453.01,-0.40821,-0.0586382, 633.384, 624.199, 23.3956, 22.269, 0.03487, 24.4461, 2.34335e-19, 0.0000000E+000
 454.51,-0.40821,-0.0586382, 633.456, 624.303, 23.4302, 22.2906, 0.03487, 24.4461, 2.34335e-19, 0.0000000E+000
 456.01,-0.40821,-0.0586382, 633.52, 624.396, 23.4652, 22.3125, 0.03487, 24.4461, 2.34335e-19, 0.0000000E+000
 457.51,-0.40821,-0.0586382, 633.587, 624.495, 23.5004, 22.3345, 0.03487, 24.4461, 2.34335e-19, 0.0000000E+000
 459.01,-0.40821,-0.0586382, 633.656, 624.595, 23.5359, 22.3569, 0.03487, 24.4461, 2.34335e-19, 0.0000000E+000
 460.51,-0.40821,-0.0586382, 633.725, 624.696, 23.5718, 22.3794, 0.03487, 24.4461, 2.34335e-19, 0.0000000E+000
 462.01,-0.40821,-0.0586382, 633.79, 624.792, 23.608, 22.4023, 0.03487, 24.4461, 2.34335e-19, 0.0000000E+000
 463.51,-0.40821,-0.0586382, 633.846, 624.886, 23.6444, 22.4253, 0.03487, 24.4461, 2.34335e-19, 0.0000000E+000
 465.01,-0.40821,-0.0586382, 633.909, 624.978, 23.6812, 22.4486, 0.03487, 24.4461, 2.34335e-19, 0.0000000E+000
 466.51,-0.40821,-0.0586382, 633.974, 625.074, 23.7183, 22.4722, 0.03487, 24.4461, 2.34335e-19, 0.0000000E+000
 468.01,-0.40821,-0.0586382, 634.039, 625.168, 23.7556, 22.496, 0.03487, 24.4461, 2.34335e-19, 0.0000000E+000
 469.51,-0.40821,-0.0586382, 634.1, 625.259, 23.7933, 22.52, 0.03487, 24.4461, 2.34335e-19, 0.0000000E+000
 471.01,-0.40821,-0.0586382, 634.164, 625.351, 23.8312, 22.5443, 0.03487, 24.4461, 2.34335e-19, 0.0000000E+000
 472.51,-0.40821,-0.0586382, 634.227, 625.444, 23.8695, 22.5689, 0.03487, 24.4461, 2.34335e-19, 0.0000000E+000
 474.01,-0.40821,-0.0586382, 634.288, 625.533, 23.9081, 22.5937, 0.03487, 24.4461, 2.34335e-19, 0.0000000E+000
 475.51,-0.40821,-0.0586382, 634.343, 625.614, 23.9469, 22.6187, 0.03487, 24.4461, 2.34335e-19, 0.0000000E+000
 477.01,-0.40821,-0.0586382, 634.402, 625.7, 23.9861, 22.644, 0.03487, 24.4461, 2.34335e-19, 0.0000000E+000
 478.51,-0.40821,-0.0586382, 634.461, 625.787, 24.0255, 22.6696, 0.03487, 24.4461, 2.34335e-19, 0.0000000E+000
 480.01,-0.40821,-0.0586382, 634.511, 625.873, 24.0652, 22.6954, 0.03487, 24.4461, 2.34335e-19, 0.0000000E+000
 481.51,-0.40821,-0.0586382, 634.572, 625.962, 24.1053, 22.7214, 0.03487, 24.4461, 2.34335e-19, 0.0000000E+000
 483.01,-0.40821,-0.0586382, 634.631, 626.047, 24.1456, 22.7478, 0.03487, 24.4461, 2.34335e-19, 0.0000000E+000
 484.51,-0.40821,-0.0586382, 634.687, 626.13, 24.1862, 22.7743, 0.03487, 24.4461, 2.34335e-19, 0.0000000E+000
 486.01,-0.40821,-0.0586382, 634.739, 626.206, 24.2271, 22.8011, 0.03487, 24.4461, 2.34335e-19, 0.0000000E+000
 487.51,-0.40821,-0.0586382, 634.796, 626.288, 24.2683, 22.8282, 0.03487, 24.4461, 2.34335e-19, 0.0000000E+000
 489.01,-0.40821,-0.0586382, 634.853, 626.372, 24.3097, 22.8555, 0.03487, 24.4461, 2.34335e-19, 0.0000000E+000
 490.51,-0.40821,-0.0586382, 634.907, 626.452, 24.3515, 22.8831, 0.03487, 24.4461, 2.34335e-19, 0.0000000E+000
 492.01,-0.40821,-0.0586382, 634.96, 626.529, 24.3935, 22.9109, 0.03487, 24.4461, 2.34335e-19, 0.0000000E+000
 493.51,-0.40821,-0.0586382, 635.014, 626.608, 24.4359, 22.939, 0.03487, 24.4461, 2.34335e-19, 0.0000000E+000
 495.01,-0.40821,-0.0586382, 635.069, 626.688, 24.4785, 22.9674, 0.03487, 24.4461, 2.34335e-19, 0.0000000E+000
 496.51,-0.40821,-0.0586382, 635.119, 626.762, 24.5214, 22.996, 0.03487, 24.4461, 2.34335e-19, 0.0000000E+000
 498.01,-0.40821,-0.0586382, 635.169, 626.835, 24.5645, 23.0248, 0.03487, 24.4461, 2.34335e-19, 0.0000000E+000
 499.51,-0.40821,-0.0586382, 635.211, 626.909, 24.608, 23.054, 0.03487, 24.4461, 2.34335e-19, 0.0000000E+000
 500,-0.40821,-0.0586382, 635.229, 626.934, 24.6224, 23.0636, 0.03487, 24.4461, 2.34335e-19, 0.0000000E+000