File: PMMA/Calibration_Results/NIST_FSRI/All_Props/GIDAZE[NIST_FSRI]_Gasification_q50_R3_Mass.csv
s,kg/m2,,C,C,C,C,m,kg/m2,kg/m2,kg/m2/s
Time,"SD","MF","TW1","TSB1","TAL1","TB1","DX1","SD1","SD_11","BR1"
 0.0000000E+000, 6.9619, 1.00006, 20.9, 20.9, 20.9, 20.9, 0.040961, 31.8162, 7.37011, 0.0000000E+000
 1.5, 6.9619, 1.00006, 73.57, 20.9, 20.9, 20.9, 0.040961, 31.8162, 7.37011, 2.82602e-12
 3.01, 6.9619, 1.00006, 113.005, 20.9001, 20.9, 20.9, 0.040961, 31.8162, 7.37011, 2.72693e-10
 4.51, 6.9619, 1.00006, 142.952, 20.9005, 20.9, 20.9, 0.040961, 31.8162, 7.37011, 5.14433e-09
 6.01, 6.9619, 1.00006, 167.79, 20.9035, 20.9, 20.9, 0.040961, 31.8162, 7.37011, 4.38272e-08
 7.51, 6.9619, 1.00006, 189.186, 20.9124, 20.9, 20.9, 0.040961, 31.8162, 7.37011, 2.31982e-07
 9.01, 6.9619, 1.00006, 208.065, 20.94, 20.9, 20.9, 0.040961, 31.8162, 7.37011, 8.95853e-07
 10.51, 6.9619, 1.00006, 225.069, 21.0039, 20.9, 20.9, 0.040961, 31.8162, 7.37011, 2.77795e-06
 12.01, 6.96189, 1.00006, 240.52, 21.1324, 20.9, 20.9, 0.040961, 31.8162, 7.3701, 7.26121e-06
 13.51, 6.96187, 1.00005, 254.616, 21.3305, 20.9, 20.9, 0.040961, 31.8162, 7.37008, 1.66356e-05
 15.01, 6.96183, 1.00005, 267.604, 21.5637, 20.9, 20.9, 0.0409609, 31.8162, 7.37005, 3.4413e-05
 16.51, 6.96175, 1.00004, 279.637, 21.9589, 20.9, 20.9, 0.0409609, 31.8161, 7.36997, 6.55325e-05
 18, 6.9616, 1.00001, 290.716, 22.4385, 20.9, 20.9, 0.0409608, 31.816, 7.36984, 0.000115878
 19.5, 6.96135, 0.999979, 300.983, 22.9523, 20.9, 20.9, 0.0409606, 31.8157, 7.36961, 0.000192944
 21, 6.96095, 0.999921, 310.559, 23.4674, 20.9, 20.9, 0.0409603, 31.8154, 7.36924, 0.000305787
 22.5, 6.96034, 0.999833, 319.476, 24.4654, 20.9, 20.9, 0.0409598, 31.8148, 7.36867, 0.000463708
 24, 6.95944, 0.999703, 327.799, 25.2664, 20.9, 20.9, 0.0409591, 31.8139, 7.36782, 0.000675794
 25.5, 6.95815, 0.999519, 335.518, 26.0878, 20.9, 20.9, 0.0409581, 31.8127, 7.3666, 0.000950374
 27, 6.95639, 0.999266, 342.662, 27.2217, 20.9, 20.9, 0.0409567, 31.811, 7.36493, 0.00129407
 28.5, 6.95403, 0.998927, 349.25, 28.096, 20.9, 20.9, 0.0409549, 31.8088, 7.36268, 0.0017108
 30, 6.95098, 0.998489, 355.307, 29.1515, 20.9, 20.9, 0.0409524, 31.8059, 7.35975, 0.00220158
 31.5, 6.94712, 0.997934, 360.856, 30.6504, 20.9, 20.9, 0.0409494, 31.8021, 7.35603, 0.00276414
 33, 6.94234, 0.997248, 365.922, 31.6323, 20.9, 20.9, 0.0409455, 31.7975, 7.35141, 0.0033929
 34.5, 6.93657, 0.996418, 370.529, 32.8707, 20.9, 20.9, 0.0409409, 31.7919, 7.34581, 0.00407919
 36, 6.92971, 0.995434, 374.689, 34.1901, 20.9, 20.9, 0.0409354, 31.7853, 7.33914, 0.00481006
 37.5, 6.92173, 0.994287, 378.435, 35.7397, 20.9, 20.9, 0.040929, 31.7775, 7.33135, 0.00557245
 39, 6.91258, 0.992973, 381.803, 37.3979, 20.9, 20.9, 0.0409216, 31.7685, 7.32239, 0.006354
 40.5, 6.90226, 0.99149, 384.824, 37.9357, 20.9, 20.9, 0.0409132, 31.7584, 7.31226, 0.00714236
 42, 6.89075, 0.989837, 387.529, 40.0993, 20.9, 20.9, 0.0409038, 31.7471, 7.30095, 0.00792637
 43.51, 6.87808, 0.988017, 389.96, 41.21, 20.9, 20.9, 0.0408935, 31.7346, 7.28843, 0.00869879
 45.01, 6.86428, 0.986034, 392.136, 43.1746, 20.9, 20.9, 0.0408822, 31.7209, 7.27477, 0.00944961
 46.51, 6.84938, 0.983894, 394.075, 45.0924, 20.9, 20.9, 0.04087, 31.7062, 7.26004, 0.0101705
 48.01, 6.83343, 0.981603, 395.82, 46.5256, 20.9, 20.9, 0.040857, 31.6904, 7.24426, 0.0108597
 49.51, 6.81648, 0.979168, 397.373, 47.9612, 20.9, 20.9, 0.0408431, 31.6736, 7.22746, 0.0115156
 51.01, 6.79858, 0.976597, 398.791, 49.5436, 20.9, 20.9, 0.0408284, 31.6558, 7.20971, 0.0121367
 52.51, 6.77979, 0.973898, 400.055, 50.9863, 20.9, 20.9, 0.040813, 31.6372, 7.19106, 0.0127226
 54.01, 6.76015, 0.971077, 401.203, 52.43, 20.9, 20.9, 0.0407969, 31.6177, 7.17155, 0.0132738
 55.51, 6.73972, 0.968141, 402.254, 54.5066, 20.9, 20.9, 0.0407801, 31.5974, 7.15124, 0.0137922
 57.01, 6.71854, 0.965099, 403.21, 55.8005, 20.9, 20.9, 0.0407627, 31.5763, 7.13018, 0.0142788
 58.51, 6.69666, 0.961956, 404.085, 57.2517, 20.9, 20.9, 0.0407447, 31.5545, 7.10841, 0.0147361
 60.01, 6.67412, 0.958719, 404.892, 59.383, 20.9, 20.9, 0.0407262, 31.5321, 7.08598, 0.0151652
 61.51, 6.65097, 0.955393, 405.644, 60.3168, 20.9, 20.9, 0.0407071, 31.509, 7.06292, 0.0155669
 63.01, 6.62724, 0.951985, 406.321, 62.2929, 20.9, 20.9, 0.0406876, 31.4854, 7.03928, 0.015942
 64.51, 6.60297, 0.948498, 406.956, 64.4676, 20.9, 20.9, 0.0406676, 31.4612, 7.0151, 0.016298
 66.01, 6.57819, 0.944939, 407.565, 65.1786, 20.9, 20.9, 0.0406472, 31.4365, 6.9904, 0.0166299
 67.51, 6.55293, 0.94131, 408.11, 66.8036, 20.9, 20.9, 0.0406264, 31.4113, 6.96521, 0.0169413
 69.01, 6.52722, 0.937617, 408.645, 68.6179, 20.9, 20.9, 0.0406052, 31.3857, 6.93957, 0.0172355
 70.51, 6.50109, 0.933864, 409.12, 70.2463, 20.9, 20.9, 0.0405836, 31.3596, 6.91351, 0.0175119
 72.01, 6.47456, 0.930053, 409.597, 72.2713, 20.9, 20.9, 0.0405618, 31.3332, 6.88704, 0.0177738
 73.5, 6.44765, 0.926187, 410.023, 74.1953, 20.9, 20.9, 0.0405397, 31.3065, 6.86037, 0.0180209
 75, 6.42039, 0.92227, 410.443, 75.9309, 20.9, 20.9, 0.0405172, 31.2793, 6.83316, 0.0182515
 76.5, 6.39277, 0.918304, 410.864, 77.2503, 20.9, 20.9, 0.0404945, 31.2517, 6.80561, 0.018481
 78, 6.36484, 0.914291, 411.232, 77.7036, 20.9, 20.9, 0.0404714, 31.2238, 6.77772, 0.0186936
 79.5, 6.33659, 0.910234, 411.606, 80.497, 20.9, 20.9, 0.0404481, 31.1957, 6.74953, 0.0188954
 81, 6.30805, 0.906133, 411.981, 82.0064, 20.9, 20.9, 0.0404246, 31.1672, 6.72103, 0.019096
 82.5, 6.27921, 0.901991, 412.308, 83.9554, 20.9, 20.9, 0.0404008, 31.1384, 6.69225, 0.0192825
 84, 6.25011, 0.897811, 412.64, 86.0195, 20.9, 20.9, 0.0403768, 31.1093, 6.66319, 0.0194582
 85.5, 6.22074, 0.893592, 412.988, 86.9565, 20.9, 20.9, 0.0403525, 31.08, 6.63386, 0.0196393
 87, 6.19111, 0.889336, 413.282, 88.4469, 20.9, 20.9, 0.0403281, 31.0504, 6.60427, 0.0198063
 88.5, 6.16124, 0.885045, 413.591, 89.701, 20.9, 20.9, 0.0403034, 31.0206, 6.57444, 0.0199641
 90, 6.13114, 0.880721, 413.903, 91.6504, 20.9001, 20.9, 0.0402786, 30.9905, 6.54438, 0.0201219
 91.5, 6.1008, 0.876362, 414.211, 93.3656, 20.9001, 20.9, 0.0402535, 30.9602, 6.51408, 0.0202767
 93, 6.07023, 0.871972, 414.48, 94.4808, 20.9001, 20.9, 0.0402283, 30.9297, 6.48355, 0.0204212
 94.5, 6.03946, 0.867552, 414.758, 96.1873, 20.9001, 20.9, 0.0402029, 30.8989, 6.45282, 0.0205572
 96, 6.00849, 0.863103, 415.045, 98.5084, 20.9001, 20.9, 0.0401773, 30.868, 6.42188, 0.0206963
 97.5, 5.97731, 0.858623, 415.332, 100.471, 20.9001, 20.9, 0.0401516, 30.8368, 6.39073, 0.0208349
 99, 5.94592, 0.854115, 415.582, 101.936, 20.9002, 20.9, 0.0401257, 30.8055, 6.35938, 0.0209641
 100.5, 5.91435, 0.84958, 415.845, 103.776, 20.9002, 20.9, 0.0400996, 30.774, 6.32784, 0.0210865
 102, 5.8826, 0.84502, 416.099, 105.49, 20.9002, 20.9, 0.0400734, 30.7422, 6.29612, 0.0212039
 103.5, 5.85067, 0.840432, 416.38, 107.205, 20.9003, 20.9, 0.040047, 30.7103, 6.26421, 0.0213343
 105, 5.81854, 0.835817, 416.641, 108.271, 20.9003, 20.9, 0.0400205, 30.6782, 6.23212, 0.0214537
 106.5, 5.78625, 0.831178, 416.879, 109.325, 20.9004, 20.9, 0.0399938, 30.646, 6.19985, 0.0215667
 108, 5.75379, 0.826515, 417.121, 111.163, 20.9004, 20.9, 0.039967, 30.6135, 6.16742, 0.0216743
 109.5, 5.72117, 0.82183, 417.366, 113.002, 20.9005, 20.9001, 0.0399401, 30.5809, 6.13483, 0.0217812
 111, 5.68838, 0.817119, 417.632, 113.504, 20.9006, 20.9001, 0.039913, 30.5482, 6.10206, 0.0219002
 112.5, 5.65541, 0.812384, 417.883, 116.559, 20.9006, 20.9001, 0.0398858, 30.5152, 6.06913, 0.0220092
 114, 5.62229, 0.807627, 418.107, 118.272, 20.9007, 20.9001, 0.0398585, 30.4822, 6.03603, 0.0221125
 115.5, 5.58903, 0.802848, 418.342, 119.302, 20.9008, 20.9001, 0.039831, 30.4489, 6.00279, 0.0222108
 117, 5.55562, 0.798049, 418.569, 121.708, 20.9009, 20.9001, 0.0398034, 30.4155, 5.9694, 0.0223052
 118.5, 5.52205, 0.793226, 418.831, 122.032, 20.901, 20.9001, 0.0397757, 30.382, 5.93586, 0.0224162
 120, 5.48832, 0.788381, 419.074, 124.31, 20.9012, 20.9002, 0.0397478, 30.3483, 5.90216, 0.0225179
 121.5, 5.45444, 0.783516, 419.293, 126.175, 20.9013, 20.9002, 0.0397198, 30.3144, 5.86831, 0.0226132
 123, 5.42043, 0.77863, 419.522, 127.332, 20.9015, 20.9002, 0.0396918, 30.2804, 5.83432, 0.0227047
 124.5, 5.38628, 0.773725, 419.743, 128.482, 20.9017, 20.9002, 0.0396635, 30.2463, 5.80019, 0.0227931
 126, 5.352, 0.7688, 419.985, 129.917, 20.9018, 20.9003, 0.0396352, 30.2121, 5.76594, 0.0228889
 127.5, 5.31757, 0.763853, 420.232, 131.643, 20.902, 20.9003, 0.0396068, 30.1776, 5.73152, 0.0229889
 129, 5.28299, 0.758887, 420.464, 132.193, 20.9023, 20.9003, 0.0395782, 30.1431, 5.69697, 0.0230807
 130.5, 5.24828, 0.753901, 420.676, 134.064, 20.9025, 20.9004, 0.0395496, 30.1084, 5.66228, 0.0231672
 132, 5.21345, 0.748897, 420.894, 135.641, 20.9028, 20.9004, 0.0395208, 30.0736, 5.62747, 0.0232499
 133.5, 5.17849, 0.743875, 421.111, 136.919, 20.903, 20.9005, 0.0394919, 30.0387, 5.59253, 0.0233303
 135, 5.1434, 0.738835, 421.352, 138.645, 20.9033, 20.9005, 0.0394629, 30.0036, 5.55747, 0.0234245
 136.5, 5.10817, 0.733774, 421.593, 141.593, 20.9037, 20.9006, 0.0394339, 29.9684, 5.52226, 0.0235171
 138, 5.07281, 0.728695, 421.817, 143.028, 20.904, 20.9007, 0.0394046, 29.933, 5.48692, 0.0236029
 139.5, 5.03732, 0.723597, 422.027, 144.153, 20.9044, 20.9007, 0.0393753, 29.8976, 5.45145, 0.0236854
 141, 5.00171, 0.718482, 422.244, 145.895, 20.9048, 20.9008, 0.0393459, 29.862, 5.41586, 0.0237637
 142.5, 4.96599, 0.71335, 422.456, 147.328, 20.9052, 20.9009, 0.0393164, 29.8263, 5.38016, 0.0238414
 144, 4.93014, 0.7082, 422.701, 147.821, 20.9056, 20.901, 0.0392868, 29.7905, 5.34433, 0.0239326
 145.5, 4.89415, 0.70303, 422.936, 150.668, 20.9061, 20.9011, 0.0392571, 29.7545, 5.30836, 0.0240221
 147, 4.85803, 0.697842, 423.161, 151.469, 20.9066, 20.9012, 0.0392272, 29.7184, 5.27227, 0.0241051
 148.5, 4.82179, 0.692637, 423.366, 152.584, 20.9072, 20.9013, 0.0391973, 29.6822, 5.23605, 0.0241843
 150, 4.78544, 0.687415, 423.581, 155.139, 20.9078, 20.9015, 0.0391673, 29.6458, 5.19971, 0.024261
 151.5, 4.74897, 0.682176, 423.796, 156.255, 20.9084, 20.9016, 0.0391372, 29.6094, 5.16326, 0.0243359
 153, 4.71238, 0.67692, 424.034, 158.505, 20.909, 20.9018, 0.0391069, 29.5728, 5.1267, 0.0244252
 154.5, 4.67565, 0.671644, 424.275, 158.97, 20.9097, 20.9019, 0.0390766, 29.5361, 5.08999, 0.0245144
 156, 4.6388, 0.66635, 424.499, 162.544, 20.9104, 20.9021, 0.0390462, 29.4993, 5.05316, 0.0245971
 157.5, 4.60182, 0.661039, 424.709, 161.853, 20.9112, 20.9023, 0.0390156, 29.4623, 5.0162, 0.0246763
 159, 4.56473, 0.655711, 424.926, 163.298, 20.912, 20.9025, 0.038985, 29.4252, 4.97913, 0.0247512
 160.51, 4.52752, 0.650366, 425.14, 165.09, 20.9128, 20.9027, 0.038954, 29.3878, 4.94169, 0.0248275
 162.01, 4.4902, 0.645005, 425.378, 167.379, 20.9137, 20.9029, 0.0389232, 29.3505, 4.90439, 0.0249129
 163.51, 4.45274, 0.639624, 425.619, 170.356, 20.9146, 20.9031, 0.0388923, 29.3131, 4.86695, 0.0250039
 165.01, 4.41515, 0.634224, 425.848, 170.64, 20.9156, 20.9034, 0.0388612, 29.2755, 4.82938, 0.0250874
 166.51, 4.37744, 0.628807, 426.058, 173.299, 20.9166, 20.9036, 0.0388301, 29.2378, 4.79169, 0.0251665
 168.01, 4.33961, 0.623373, 426.277, 174.263, 20.9177, 20.9039, 0.0387988, 29.2, 4.75388, 0.0252442
 169.51, 4.30167, 0.617923, 426.496, 174.535, 20.9188, 20.9042, 0.0387675, 29.1621, 4.71596, 0.0253197
 171.01, 4.26361, 0.612456, 426.727, 175.838, 20.9199, 20.9045, 0.038736, 29.124, 4.67792, 0.0254042
 172.51, 4.22541, 0.606968, 426.978, 178.188, 20.9212, 20.9049, 0.0387045, 29.0859, 4.63974, 0.025497
 174.01, 4.18708, 0.601462, 427.207, 180.553, 20.9224, 20.9052, 0.0386728, 29.0476, 4.60143, 0.025582
 175.51, 4.14863, 0.595938, 427.422, 180.819, 20.9238, 20.9056, 0.0386411, 29.0091, 4.563, 0.0256629
 177.01, 4.11005, 0.590398, 427.643, 182.494, 20.9251, 20.906, 0.0386092, 28.9706, 4.52444, 0.0257398
 178.51, 4.07137, 0.58484, 427.86, 185.243, 20.9266, 20.9064, 0.0385773, 28.9319, 4.48577, 0.0258179
 180.01, 4.03256, 0.579266, 428.089, 186.223, 20.9281, 20.9068, 0.0385452, 28.8931, 4.44699, 0.0258981
 181.51, 3.99361, 0.573671, 428.344, 188.283, 20.9296, 20.9073, 0.038513, 28.8542, 4.40806, 0.0259963
 183.01, 3.95453, 0.568057, 428.581, 189.993, 20.9312, 20.9078, 0.0384807, 28.8151, 4.369, 0.0260842
 184.51, 3.91532, 0.562425, 428.796, 192.44, 20.9329, 20.9083, 0.0384484, 28.7759, 4.32981, 0.0261678
 186.01, 3.87599, 0.556775, 429.022, 194.171, 20.9347, 20.9088, 0.0384159, 28.7366, 4.2905, 0.0262498
 187.51, 3.83653, 0.551107, 429.244, 194.443, 20.9365, 20.9094, 0.0383833, 28.6972, 4.25106, 0.0263285
 189.01, 3.79696, 0.545422, 429.469, 197.667, 20.9383, 20.9099, 0.0383506, 28.6576, 4.21151, 0.0264129
 190.51, 3.75724, 0.539716, 429.734, 200.174, 20.9403, 20.9105, 0.0383178, 28.6179, 4.17181, 0.0265138
 192.01, 3.71737, 0.53399, 429.974, 201.579, 20.9423, 20.9112, 0.0382848, 28.5781, 4.13197, 0.0266077
 193.51, 3.67737, 0.528244, 430.199, 202.614, 20.9444, 20.9119, 0.0382518, 28.5381, 4.09199, 0.0266961
 195.01, 3.63724, 0.522479, 430.427, 204.032, 20.9465, 20.9125, 0.0382187, 28.498, 4.05188, 0.0267834
 196.51, 3.59698, 0.516696, 430.656, 207.358, 20.9487, 20.9133, 0.0381854, 28.4578, 4.01164, 0.0268703
 198.01, 3.55659, 0.510894, 430.889, 206.51, 20.951, 20.914, 0.038152, 28.4174, 3.97127, 0.0269578
 199.51, 3.51604, 0.505069, 431.157, 209.105, 20.9534, 20.9148, 0.0381186, 28.3769, 3.93074, 0.0270674
 201.01, 3.47534, 0.499223, 431.404, 212.109, 20.9558, 20.9156, 0.0380849, 28.3362, 3.89007, 0.027164
 202.51, 3.4345, 0.493356, 431.631, 211.251, 20.9584, 20.9165, 0.0380512, 28.2954, 3.84925, 0.0272604
 204.01, 3.39351, 0.487469, 431.869, 214.289, 20.961, 20.9174, 0.0380173, 28.2544, 3.80829, 0.0273523
 205.51, 3.35239, 0.481562, 432.099, 217.751, 20.9636, 20.9183, 0.0379834, 28.2133, 3.76719, 0.0274455
 207.01, 3.31113, 0.475634, 432.347, 218.479, 20.9664, 20.9193, 0.0379493, 28.1721, 3.72595, 0.0275446
 208.51, 3.2697, 0.469683, 432.616, 221.6, 20.9692, 20.9203, 0.0379151, 28.1307, 3.68455, 0.0276574
 210.01, 3.2281, 0.463708, 432.867, 223.148, 20.9722, 20.9213, 0.0378807, 28.0891, 3.64298, 0.0277633
 211.51, 3.18636, 0.457712, 433.101, 224.712, 20.9752, 20.9224, 0.0378462, 28.0474, 3.60126, 0.0278641
 213.01, 3.14446, 0.451693, 433.342, 229.132, 20.9783, 20.9235, 0.0378116, 28.0055, 3.55938, 0.0279676
 214.51, 3.10241, 0.445652, 433.582, 227.472, 20.9815, 20.9247, 0.0377769, 27.9635, 3.51736, 0.0280674
 216.01, 3.06019, 0.439588, 433.851, 231.127, 20.9847, 20.9259, 0.037742, 27.9213, 3.47517, 0.0281862
 217.51, 3.01779, 0.433497, 434.12, 233.168, 20.9881, 20.9271, 0.037707, 27.8789, 3.4328, 0.0283044
 219.01, 2.97522, 0.427382, 434.373, 234.813, 20.9915, 20.9284, 0.0376719, 27.8364, 3.39025, 0.0284217
 220.51, 2.93247, 0.421242, 434.616, 238.564, 20.9951, 20.9298, 0.0376366, 27.7937, 3.34753, 0.0285336
 222.01, 2.88956, 0.415077, 434.862, 241.093, 20.9987, 20.9311, 0.0376011, 27.7508, 3.30465, 0.0286483
 223.51, 2.84647, 0.408888, 435.113, 243.224, 21.0024, 20.9326, 0.0375655, 27.7077, 3.26159, 0.028763
 225.01, 2.80319, 0.402671, 435.402, 244.097, 21.0063, 20.9341, 0.0375298, 27.6645, 3.21834, 0.0289003
 226.51, 2.75971, 0.396425, 435.67, 248.84, 21.0102, 20.9356, 0.0374939, 27.621, 3.17489, 0.0290303
 228.01, 2.71604, 0.390151, 435.921, 247.592, 21.0142, 20.9371, 0.0374578, 27.5774, 3.13125, 0.0291578
 229.51, 2.67217, 0.38385, 436.181, 250.668, 21.0183, 20.9388, 0.0374216, 27.5335, 3.08741, 0.0292872
 231.01, 2.62811, 0.377521, 436.436, 253.781, 21.0225, 20.9405, 0.0373852, 27.4895, 3.04339, 0.0294168
 232.51, 2.58384, 0.371162, 436.731, 256.93, 21.0268, 20.9422, 0.0373486, 27.4453, 2.99915, 0.0295662
 234.01, 2.53934, 0.36477, 437.012, 258.344, 21.0312, 20.944, 0.0373119, 27.4008, 2.95469, 0.0297144
 235.51, 2.49462, 0.358346, 437.281, 259.775, 21.0357, 20.9458, 0.037275, 27.3561, 2.91, 0.0298638
 237.01, 2.44968, 0.35189, 437.55, 262.119, 21.0404, 20.9477, 0.0372378, 27.3112, 2.8651, 0.0300094
 238.51, 2.40451, 0.345402, 437.822, 265.846, 21.0451, 20.9496, 0.0372005, 27.2661, 2.81997, 0.0301627
 240.01, 2.35911, 0.33888, 438.122, 267.347, 21.0499, 20.9516, 0.0371631, 27.2207, 2.7746, 0.0303265
 241.51, 2.31344, 0.33232, 438.422, 268.413, 21.0549, 20.9537, 0.0371254, 27.1751, 2.72898, 0.0305023
 243.01, 2.26752, 0.325723, 438.7, 271.792, 21.0599, 20.9558, 0.0370874, 27.1292, 2.6831, 0.0306703
 244.51, 2.22134, 0.319089, 438.988, 274.29, 21.065, 20.958, 0.0370493, 27.0831, 2.63696, 0.0308462
 246.01, 2.1749, 0.312418, 439.271, 276.359, 21.0703, 20.9603, 0.037011, 27.0367, 2.59056, 0.0310204
 247.51, 2.12817, 0.305705, 439.599, 280.323, 21.0757, 20.9626, 0.0369724, 26.99, 2.54387, 0.0312208
 249.01, 2.08114, 0.29895, 439.907, 283.868, 21.0812, 20.9649, 0.0369335, 26.943, 2.49689, 0.0314175
 250.51, 2.03381, 0.292151, 440.207, 285.113, 21.0868, 20.9674, 0.0368945, 26.8957, 2.44961, 0.0316203
 252.01, 1.98618, 0.285309, 440.506, 285.914, 21.0925, 20.9699, 0.0368551, 26.8481, 2.40203, 0.0318232
 253.51, 1.93823, 0.278421, 440.831, 290.054, 21.0983, 20.9724, 0.0368156, 26.8003, 2.35413, 0.0320413
 255.01, 1.88993, 0.271484, 441.167, 292.343, 21.1043, 20.975, 0.0367757, 26.752, 2.30589, 0.032274
 256.51, 1.84129, 0.264496, 441.488, 296.588, 21.1103, 20.9777, 0.0367355, 26.7034, 2.2573, 0.0325084
 258.01, 1.79229, 0.257458, 441.808, 296.081, 21.1165, 20.9805, 0.0366951, 26.6545, 2.20836, 0.0327461
 259.51, 1.74293, 0.250367, 442.139, 298.496, 21.1228, 20.9833, 0.0366543, 26.6052, 2.15906, 0.0329925
 261.01, 1.69317, 0.243219, 442.503, 302.904, 21.1292, 20.9863, 0.0366133, 26.5555, 2.10937, 0.0332647
 262.51, 1.643, 0.236012, 442.844, 305.917, 21.1358, 20.9892, 0.0365719, 26.5054, 2.05926, 0.0335355
 264.01, 1.59242, 0.228746, 443.19, 308.501, 21.1424, 20.9923, 0.0365301, 26.4549, 2.00875, 0.0338172
 265.51, 1.5414, 0.221418, 443.548, 313.115, 21.1492, 20.9954, 0.036488, 26.4039, 1.9578, 0.0341066
 267.01, 1.48992, 0.214023, 443.938, 317.313, 21.1561, 20.9986, 0.0364455, 26.3525, 1.9064, 0.0344265
 268.51, 1.43797, 0.20656, 444.303, 317.604, 21.1632, 21.0019, 0.0364027, 26.3006, 1.85452, 0.0347444
 270.01, 1.38552, 0.199025, 444.684, 321.953, 21.1703, 21.0052, 0.0363594, 26.2483, 1.80215, 0.0350788
 271.51, 1.33255, 0.191417, 445.096, 327.91, 21.1776, 21.0087, 0.0363157, 26.1954, 1.74927, 0.035434
 273.01, 1.27903, 0.183729, 445.502, 332.46, 21.185, 21.0122, 0.0362715, 26.142, 1.69583, 0.0358032
 274.51, 1.22494, 0.17596, 445.91, 333.541, 21.1926, 21.0158, 0.0362269, 26.088, 1.64184, 0.0361855
 276.01, 1.17027, 0.168106, 446.346, 339.82, 21.2003, 21.0194, 0.0361818, 26.0334, 1.58726, 0.0365862
 277.51, 1.11496, 0.160161, 446.798, 343.14, 21.2081, 21.0232, 0.0361362, 25.9782, 1.53206, 0.0370159
 279.01, 1.059, 0.152122, 447.246, 347.606, 21.216, 21.027, 0.03609, 25.9223, 1.4762, 0.0374557
 280.51, 1.00235, 0.143985, 447.739, 352.203, 21.2241, 21.0309, 0.0360433, 25.8658, 1.41967, 0.0379249
 282.01, 0.944972, 0.135743, 448.238, 353.286, 21.2323, 21.0349, 0.035996, 25.8085, 1.36241, 0.0384189
 283.51, 0.886838, 0.127392, 448.751, 359.743, 21.2407, 21.039, 0.035948, 25.7505, 1.3044, 0.0389287
 285.01, 0.827896, 0.118925, 449.317, 364.283, 21.2492, 21.0432, 0.0358994, 25.6917, 1.24559, 0.0394789
 286.51, 0.768111, 0.110337, 449.892, 367.426, 21.2578, 21.0474, 0.0358501, 25.6321, 1.18594, 0.0400496
 288.01, 0.707434, 0.101621, 450.526, 372.364, 21.2665, 21.0517, 0.0358001, 25.5715, 1.12541, 0.0406572
 289.51, 0.645816, 0.0927697, 451.18, 379.663, 21.2755, 21.0562, 0.0357493, 25.5101, 1.06394, 0.0412905
 291.01, 0.583204, 0.0837757, 451.916, 384.059, 21.2845, 21.0607, 0.0356977, 25.4476, 1.0015, 0.0419681
 292.51, 0.519549, 0.0746317, 452.715, 389.298, 21.2937, 21.0653, 0.0356452, 25.3841, 0.938012, 0.0426779
 294.01, 0.454792, 0.0653296, 453.592, 393.327, 21.303, 21.07, 0.0355918, 25.3196, 0.873434, 0.0434219
 295.51, 0.388879, 0.0558614, 454.588, 401.45, 21.3125, 21.0748, 0.0355375, 25.2538, 0.80771, 0.0442046
 297.01, 0.321764, 0.0462204, 455.731, 411.549, 21.3221, 21.0797, 0.0354822, 25.1869, 0.740789, 0.0450163
 298.51, 0.253407, 0.0364012, 457.076, 419.061, 21.3319, 21.0847, 0.0354259, 25.1188, 0.672632, 0.0458487
 300.01, 0.183801, 0.0264025, 458.697, 426.248, 21.3418, 21.0898, 0.0353685, 25.0493, 0.603225, 0.0466798
 301.51, 0.11299, 0.0162307, 460.703, 432.472, 21.3519, 21.095, 0.0353102, 24.9787, 0.532601, 0.0474639
 303.01, 0.0411183, 0.00590653, 463.215, 446.878, 21.3621, 21.1002, 0.0352509, 24.907, 0.460883, 0.0481146
 304.51,-0.0314525,-0.00451806, 466.468, 455.911, 21.3725, 21.1056, 0.035191, 24.8345, 0.388393, 0.0484721
 306.01,-0.104077,-0.0149503, 470.998, 466.231, 21.383, 21.1111, 0.0351309, 24.7618, 0.315721, 0.0483134
 307.51,-0.175616,-0.0252268, 477.468, 479.523, 21.3937, 21.1167, 0.0350716, 24.69, 0.243912, 0.0472545
 309.01,-0.244158,-0.0350727, 486.718, 492.017, 21.4045, 21.1223, 0.0350144, 24.6209, 0.174733, 0.044713
 310.51,-0.306684,-0.0440543, 499.775, 505.148, 21.4155, 21.1281, 0.0349617, 24.5571, 0.111001, 0.0398502
 312.01,-0.358458,-0.0514915, 517.604, 520.855, 21.4266, 21.134, 0.0349172, 24.5032, 0.0571195, 0.0313313
 313.51,-0.39236,-0.0563615, 538.616, 539.549, 21.4379, 21.14, 0.0348864, 24.466, 0.0198714, 0.0176677
 315.01,-0.405077,-0.0581881, 550.277, 550.481, 21.4494, 21.1461, 0.0348735, 24.4503, 0.00419623, 0.00487191
 316.51,-0.40821,-0.0586382, 554.095, 575.382, 21.461, 21.1523, 0.03487, 24.4461, 0.0000000E+000, 0.0000000E+000
 318.01,-0.40821,-0.0586382, 557.654, 578.962, 21.4728, 21.1586, 0.03487, 24.4461, 0.0000000E+000, 0.0000000E+000
 319.51,-0.40821,-0.0586382, 561.109, 582.436, 21.4848, 21.165, 0.03487, 24.4461, 0.0000000E+000, 0.0000000E+000
 321.01,-0.40821,-0.0586382, 564.081, 585.427, 21.4969, 21.1715, 0.03487, 24.4461, 0.0000000E+000, 0.0000000E+000
 322.51,-0.40821,-0.0586382, 566.654, 588.012, 21.5092, 21.1782, 0.03487, 24.4461, 0.0000000E+000, 0.0000000E+000
 324.01,-0.40821,-0.0586382, 568.903, 590.271, 21.5217, 21.1849, 0.03487, 24.4461, 0.0000000E+000, 0.0000000E+000
 325.51,-0.40821,-0.0586382, 570.892, 592.271, 21.5343, 21.1918, 0.03487, 24.4461, 0.0000000E+000, 0.0000000E+000
 327.01,-0.40821,-0.0586382, 572.672, 594.059, 21.5471, 21.1988, 0.03487, 24.4461, 0.0000000E+000, 0.0000000E+000
 328.51,-0.40821,-0.0586382, 574.267, 595.674, 21.5601, 21.2059, 0.03487, 24.4461, 0.0000000E+000, 0.0000000E+000
 330.01,-0.40821,-0.0586382, 575.74, 597.141, 21.5732, 21.2131, 0.03487, 24.4461, 0.0000000E+000, 0.0000000E+000
 331.51,-0.40821,-0.0586382, 577.065, 598.484, 21.5866, 21.2204, 0.03487, 24.4461, 0.0000000E+000, 0.0000000E+000
 333.01,-0.40821,-0.0586382, 578.288, 599.718, 21.6001, 21.2279, 0.03487, 24.4461, 0.0000000E+000, 0.0000000E+000
 334.51,-0.40821,-0.0586382, 579.428, 600.857, 21.6138, 21.2354, 0.03487, 24.4461, 0.0000000E+000, 0.0000000E+000
 336.01,-0.40821,-0.0586382, 580.487, 601.917, 21.6277, 21.2431, 0.03487, 24.4461, 0.0000000E+000, 0.0000000E+000
 337.51,-0.40821,-0.0586382, 581.47, 602.907, 21.6417, 21.2509, 0.03487, 24.4461, 0.0000000E+000, 0.0000000E+000
 339.01,-0.40821,-0.0586382, 582.388, 603.835, 21.656, 21.2589, 0.03487, 24.4461, 0.0000000E+000, 0.0000000E+000
 340.51,-0.40821,-0.0586382, 583.245, 604.705, 21.6704, 21.2669, 0.03487, 24.4461, 0.0000000E+000, 0.0000000E+000
 342.01,-0.40821,-0.0586382, 584.067, 605.526, 21.685, 21.2751, 0.03487, 24.4461, 0.0000000E+000, 0.0000000E+000
 343.51,-0.40821,-0.0586382, 584.846, 606.302, 21.6999, 21.2834, 0.03487, 24.4461, 0.0000000E+000, 0.0000000E+000
 345.01,-0.40821,-0.0586382, 585.586, 607.038, 21.7149, 21.2918, 0.03487, 24.4461, 0.0000000E+000, 0.0000000E+000
 346.51,-0.40821,-0.0586382, 586.261, 607.738, 21.7301, 21.3004, 0.03487, 24.4461, 0.0000000E+000, 0.0000000E+000
 348.01,-0.40821,-0.0586382, 586.931, 608.401, 21.7455, 21.3091, 0.03487, 24.4461, 0.0000000E+000, 0.0000000E+000
 349.51,-0.40821,-0.0586382, 587.572, 609.034, 21.7611, 21.3179, 0.03487, 24.4461, 0.0000000E+000, 0.0000000E+000
 351.01,-0.40821,-0.0586382, 588.157, 609.64, 21.777, 21.3269, 0.03487, 24.4461, 0.0000000E+000, 0.0000000E+000
 352.51,-0.40821,-0.0586382, 588.741, 610.214, 21.793, 21.336, 0.03487, 24.4461, 0.0000000E+000, 0.0000000E+000
 354.01,-0.40821,-0.0586382, 589.274, 610.768, 21.8093, 21.3452, 0.03487, 24.4461, 0.0000000E+000, 0.0000000E+000
 355.51,-0.40821,-0.0586382, 589.813, 611.294, 21.8257, 21.3546, 0.03487, 24.4461, 0.0000000E+000, 0.0000000E+000
 357.01,-0.40821,-0.0586382, 590.311, 611.805, 21.8424, 21.3641, 0.03487, 24.4461, 0.0000000E+000, 0.0000000E+000
 358.51,-0.40821,-0.0586382, 590.807, 612.293, 21.8593, 21.3738, 0.03487, 24.4461, 0.0000000E+000, 0.0000000E+000
 360.01,-0.40821,-0.0586382, 591.261, 612.765, 21.8765, 21.3836, 0.03487, 24.4461, 0.0000000E+000, 0.0000000E+000
 361.51,-0.40821,-0.0586382, 591.725, 613.214, 21.8939, 21.3935, 0.03487, 24.4461, 0.0000000E+000, 0.0000000E+000
 363.01,-0.40821,-0.0586382, 592.15, 613.655, 21.9115, 21.4036, 0.03487, 24.4461, 0.0000000E+000, 0.0000000E+000
 364.51,-0.40821,-0.0586382, 592.584, 614.073, 21.9294, 21.4138, 0.03487, 24.4461, 0.0000000E+000, 0.0000000E+000
 366.01,-0.40821,-0.0586382, 592.978, 614.482, 21.9475, 21.4242, 0.03487, 24.4461, 0.0000000E+000, 0.0000000E+000
 367.51,-0.40821,-0.0586382, 593.382, 614.879, 21.9659, 21.4347, 0.03487, 24.4461, 0.0000000E+000, 0.0000000E+000
 369.01,-0.40821,-0.0586382, 593.758, 615.259, 21.9846, 21.4454, 0.03487, 24.4461, 0.0000000E+000, 0.0000000E+000
 370.51,-0.40821,-0.0586382, 594.118, 615.632, 22.0035, 21.4563, 0.03487, 24.4461, 0.0000000E+000, 0.0000000E+000
 372.01,-0.40821,-0.0586382, 594.491, 615.987, 22.0227, 21.4673, 0.03487, 24.4461, 0.0000000E+000, 0.0000000E+000
 373.51,-0.40821,-0.0586382, 594.828, 616.337, 22.0422, 21.4785, 0.03487, 24.4461, 0.0000000E+000, 0.0000000E+000
 375.01,-0.40821,-0.0586382, 595.156, 616.677, 22.062, 21.4898, 0.03487, 24.4461, 0.0000000E+000, 0.0000000E+000
 376.51,-0.40821,-0.0586382, 595.5, 617.002, 22.0821, 21.5013, 0.03487, 24.4461, 0.0000000E+000, 0.0000000E+000
 378.01,-0.40821,-0.0586382, 595.809, 617.323, 22.1026, 21.5129, 0.03487, 24.4461, 0.0000000E+000, 0.0000000E+000
 379.51,-0.40821,-0.0586382, 596.111, 617.636, 22.1233, 21.5248, 0.03487, 24.4461, 0.0000000E+000, 0.0000000E+000
 381.01,-0.40821,-0.0586382, 596.429, 617.934, 22.1444, 21.5368, 0.03487, 24.4461, 0.0000000E+000, 0.0000000E+000
 382.51,-0.40821,-0.0586382, 596.714, 618.23, 22.1658, 21.549, 0.03487, 24.4461, 0.0000000E+000, 0.0000000E+000
 384.01,-0.40821,-0.0586382, 596.989, 618.515, 22.1876, 21.5614, 0.03487, 24.4461, 0.0000000E+000, 0.0000000E+000
 385.51,-0.40821,-0.0586382, 597.26, 618.796, 22.2098, 21.5739, 0.03487, 24.4461, 0.0000000E+000, 0.0000000E+000
 387.01,-0.40821,-0.0586382, 597.549, 619.064, 22.2323, 21.5867, 0.03487, 24.4461, 0.0000000E+000, 0.0000000E+000
 388.51,-0.40821,-0.0586382, 597.806, 619.33, 22.2552, 21.5996, 0.03487, 24.4461, 0.0000000E+000, 0.0000000E+000
 390.01,-0.40821,-0.0586382, 598.058, 619.592, 22.2785, 21.6128, 0.03487, 24.4461, 0.0000000E+000, 0.0000000E+000
 391.51,-0.40821,-0.0586382, 598.312, 619.843, 22.3022, 21.6261, 0.03487, 24.4461, 0.0000000E+000, 0.0000000E+000
 393.01,-0.40821,-0.0586382, 598.569, 620.089, 22.3264, 21.6396, 0.03487, 24.4461, 0.0000000E+000, 0.0000000E+000
 394.51,-0.40821,-0.0586382, 598.8, 620.329, 22.3509, 21.6534, 0.03487, 24.4461, 0.0000000E+000, 0.0000000E+000
 396.01,-0.40821,-0.0586382, 599.03, 620.568, 22.3759, 21.6674, 0.03487, 24.4461, 0.0000000E+000, 0.0000000E+000
 397.51,-0.40821,-0.0586382, 599.254, 620.8, 22.4013, 21.6815, 0.03487, 24.4461, 0.0000000E+000, 0.0000000E+000
 399.01,-0.40821,-0.0586382, 599.499, 621.022, 22.4272, 21.696, 0.03487, 24.4461, 0.0000000E+000, 0.0000000E+000
 400.51,-0.40821,-0.0586382, 599.713, 621.244, 22.4536, 21.7106, 0.03487, 24.4461, 0.0000000E+000, 0.0000000E+000
 402.01,-0.40821,-0.0586382, 599.925, 621.464, 22.4804, 21.7255, 0.03487, 24.4461, 0.0000000E+000, 0.0000000E+000
 403.51,-0.40821,-0.0586382, 600.127, 621.673, 22.5077, 21.7406, 0.03487, 24.4461, 0.0000000E+000, 0.0000000E+000
 405.01,-0.40821,-0.0586382, 600.355, 621.881, 22.5356, 21.7559, 0.03487, 24.4461, 0.0000000E+000, 0.0000000E+000
 406.51,-0.40821,-0.0586382, 600.555, 622.085, 22.5639, 21.7715, 0.03487, 24.4461, 0.0000000E+000, 0.0000000E+000
 408.01,-0.40821,-0.0586382, 600.746, 622.283, 22.5927, 21.7874, 0.03487, 24.4461, 0.0000000E+000, 0.0000000E+000
 409.51,-0.40821,-0.0586382, 600.936, 622.481, 22.6221, 21.8035, 0.03487, 24.4461, 0.0000000E+000, 0.0000000E+000
 411.01,-0.40821,-0.0586382, 601.122, 622.674, 22.652, 21.8198, 0.03487, 24.4461, 0.0000000E+000, 0.0000000E+000
 412.51,-0.40821,-0.0586382, 601.326, 622.864, 22.6824, 21.8365, 0.03487, 24.4461, 0.0000000E+000, 0.0000000E+000
 414.01,-0.40821,-0.0586382, 601.508, 623.042, 22.7134, 21.8534, 0.03487, 24.4461, 0.0000000E+000, 0.0000000E+000
 415.51,-0.40821,-0.0586382, 601.685, 623.226, 22.7449, 21.8706, 0.03487, 24.4461, 0.0000000E+000, 0.0000000E+000
 417.01,-0.40821,-0.0586382, 601.859, 623.406, 22.777, 21.8881, 0.03487, 24.4461, 0.0000000E+000, 0.0000000E+000
 418.51,-0.40821,-0.0586382, 602.026, 623.579, 22.8096, 21.9058, 0.03487, 24.4461, 0.0000000E+000, 0.0000000E+000
 420.01,-0.40821,-0.0586382, 602.191, 623.75, 22.8429, 21.9239, 0.03487, 24.4461, 0.0000000E+000, 0.0000000E+000
 421.51,-0.40821,-0.0586382, 602.384, 623.919, 22.8767, 21.9423, 0.03487, 24.4461, 0.0000000E+000, 0.0000000E+000
 423.01,-0.40821,-0.0586382, 602.543, 624.083, 22.9111, 21.961, 0.03487, 24.4461, 0.0000000E+000, 0.0000000E+000
 424.51,-0.40821,-0.0586382, 602.7, 624.246, 22.9461, 21.9799, 0.03487, 24.4461, 0.0000000E+000, 0.0000000E+000
 426.01,-0.40821,-0.0586382, 602.855, 624.407, 22.9816, 21.9992, 0.03487, 24.4461, 0.0000000E+000, 0.0000000E+000
 427.51,-0.40821,-0.0586382, 603.006, 624.564, 23.0178, 22.0189, 0.03487, 24.4461, 0.0000000E+000, 0.0000000E+000
 429.01,-0.40821,-0.0586382, 603.159, 624.722, 23.0546, 22.0388, 0.03487, 24.4461, 0.0000000E+000, 0.0000000E+000
 430.51,-0.40821,-0.0586382, 603.334, 624.873, 23.092, 22.0591, 0.03487, 24.4461, 0.0000000E+000, 0.0000000E+000
 432.01,-0.40821,-0.0586382, 603.475, 625.018, 23.1301, 22.0798, 0.03487, 24.4461, 0.0000000E+000, 0.0000000E+000
 433.51,-0.40821,-0.0586382, 603.619, 625.167, 23.1687, 22.1007, 0.03487, 24.4461, 0.0000000E+000, 0.0000000E+000
 435.01,-0.40821,-0.0586382, 603.761, 625.315, 23.208, 22.1221, 0.03487, 24.4461, 0.0000000E+000, 0.0000000E+000
 436.51,-0.40821,-0.0586382, 603.9, 625.459, 23.2479, 22.1438, 0.03487, 24.4461, 0.0000000E+000, 0.0000000E+000
 438.01,-0.40821,-0.0586382, 604.033, 625.597, 23.2885, 22.1658, 0.03487, 24.4461, 0.0000000E+000, 0.0000000E+000
 439.51,-0.40821,-0.0586382, 604.168, 625.737, 23.3296, 22.1882, 0.03487, 24.4461, 0.0000000E+000, 0.0000000E+000
 441.01,-0.40821,-0.0586382, 604.33, 625.873, 23.3714, 22.211, 0.03487, 24.4461, 0.0000000E+000, 0.0000000E+000
 442.51,-0.40821,-0.0586382, 604.459, 626.006, 23.4139, 22.2342, 0.03487, 24.4461, 0.0000000E+000, 0.0000000E+000
 444.01,-0.40821,-0.0586382, 604.588, 626.14, 23.457, 22.2577, 0.03487, 24.4461, 0.0000000E+000, 0.0000000E+000
 445.51,-0.40821,-0.0586382, 604.713, 626.27, 23.5007, 22.2817, 0.03487, 24.4461, 0.0000000E+000, 0.0000000E+000
 447.01,-0.40821,-0.0586382, 604.837, 626.398, 23.5451, 22.306, 0.03487, 24.4461, 0.0000000E+000, 0.0000000E+000
 448.51,-0.40821,-0.0586382, 604.96, 626.526, 23.5901, 22.3307, 0.03487, 24.4461, 0.0000000E+000, 0.0000000E+000
 450.01,-0.40821,-0.0586382, 605.083, 626.654, 23.6358, 22.3559, 0.03487, 24.4461, 0.0000000E+000, 0.0000000E+000
 451.51,-0.40821,-0.0586382, 605.203, 626.778, 23.6822, 22.3814, 0.03487, 24.4461, 0.0000000E+000, 0.0000000E+000
 453.01,-0.40821,-0.0586382, 605.346, 626.895, 23.7291, 22.4073, 0.03487, 24.4461, 0.0000000E+000, 0.0000000E+000
 454.51,-0.40821,-0.0586382, 605.461, 627.014, 23.7768, 22.4337, 0.03487, 24.4461, 0.0000000E+000, 0.0000000E+000
 456.01,-0.40821,-0.0586382, 605.576, 627.133, 23.8251, 22.4605, 0.03487, 24.4461, 0.0000000E+000, 0.0000000E+000
 457.51,-0.40821,-0.0586382, 605.691, 627.252, 23.874, 22.4877, 0.03487, 24.4461, 0.0000000E+000, 0.0000000E+000
 459.01,-0.40821,-0.0586382, 605.802, 627.368, 23.9236, 22.5153, 0.03487, 24.4461, 0.0000000E+000, 0.0000000E+000
 460.51,-0.40821,-0.0586382, 605.911, 627.481, 23.9739, 22.5434, 0.03487, 24.4461, 0.0000000E+000, 0.0000000E+000
 462.01,-0.40821,-0.0586382, 606.018, 627.591, 24.0248, 22.5719, 0.03487, 24.4461, 0.0000000E+000, 0.0000000E+000
 463.51,-0.40821,-0.0586382, 606.126, 627.703, 24.0764, 22.6009, 0.03487, 24.4461, 0.0000000E+000, 0.0000000E+000
 465.01,-0.40821,-0.0586382, 606.233, 627.814, 24.1286, 22.6303, 0.03487, 24.4461, 0.0000000E+000, 0.0000000E+000
 466.51,-0.40821,-0.0586382, 606.363, 627.917, 24.1814, 22.6601, 0.03487, 24.4461, 0.0000000E+000, 0.0000000E+000
 468.01,-0.40821,-0.0586382, 606.467, 628.025, 24.235, 22.6904, 0.03487, 24.4461, 0.0000000E+000, 0.0000000E+000
 469.51,-0.40821,-0.0586382, 606.57, 628.132, 24.2891, 22.7211, 0.03487, 24.4461, 0.0000000E+000, 0.0000000E+000
 471.01,-0.40821,-0.0586382, 606.668, 628.234, 24.344, 22.7524, 0.03487, 24.4461, 0.0000000E+000, 0.0000000E+000
 472.51,-0.40821,-0.0586382, 606.767, 628.336, 24.3995, 22.784, 0.03487, 24.4461, 0.0000000E+000, 0.0000000E+000
 474.01,-0.40821,-0.0586382, 606.865, 628.438, 24.4556, 22.8162, 0.03487, 24.4461, 0.0000000E+000, 0.0000000E+000
 475.51,-0.40821,-0.0586382, 606.963, 628.54, 24.5124, 22.8488, 0.03487, 24.4461, 0.0000000E+000, 0.0000000E+000
 477.01,-0.40821,-0.0586382, 607.059, 628.639, 24.5698, 22.8819, 0.03487, 24.4461, 0.0000000E+000, 0.0000000E+000
 478.51,-0.40821,-0.0586382, 607.155, 628.738, 24.6278, 22.9154, 0.03487, 24.4461, 0.0000000E+000, 0.0000000E+000
 480.01,-0.40821,-0.0586382, 607.249, 628.836, 24.6865, 22.9495, 0.03487, 24.4461, 0.0000000E+000, 0.0000000E+000
 481.51,-0.40821,-0.0586382, 607.365, 628.924, 24.7459, 22.984, 0.03487, 24.4461, 0.0000000E+000, 0.0000000E+000
 483.01,-0.40821,-0.0586382, 607.456, 629.019, 24.8059, 23.019, 0.03487, 24.4461, 0.0000000E+000, 0.0000000E+000
 484.51,-0.40821,-0.0586382, 607.548, 629.114, 24.8665, 23.0545, 0.03487, 24.4461, 0.0000000E+000, 0.0000000E+000
 486.01,-0.40821,-0.0586382, 607.638, 629.208, 24.9278, 23.0904, 0.03487, 24.4461, 0.0000000E+000, 0.0000000E+000
 487.51,-0.40821,-0.0586382, 607.727, 629.3, 24.9897, 23.1269, 0.03487, 24.4461, 0.0000000E+000, 0.0000000E+000
 489.01,-0.40821,-0.0586382, 607.813, 629.389, 25.0522, 23.1639, 0.03487, 24.4461, 0.0000000E+000, 0.0000000E+000
 490.51,-0.40821,-0.0586382, 607.899, 629.479, 25.1154, 23.2013, 0.03487, 24.4461, 0.0000000E+000, 0.0000000E+000
 492.01,-0.40821,-0.0586382, 607.983, 629.566, 25.1792, 23.2393, 0.03487, 24.4461, 0.0000000E+000, 0.0000000E+000
 493.51,-0.40821,-0.0586382, 608.069, 629.654, 25.2436, 23.2777, 0.03487, 24.4461, 0.0000000E+000, 0.0000000E+000
 495.01,-0.40821,-0.0586382, 608.153, 629.741, 25.3086, 23.3167, 0.03487, 24.4461, 0.0000000E+000, 0.0000000E+000
 496.51,-0.40821,-0.0586382, 608.234, 629.826, 25.3743, 23.3562, 0.03487, 24.4461, 0.0000000E+000, 0.0000000E+000
 498.01,-0.40821,-0.0586382, 608.343, 629.908, 25.4406, 23.3961, 0.03487, 24.4461, 0.0000000E+000, 0.0000000E+000
 499.51,-0.40821,-0.0586382, 608.425, 629.992, 25.5075, 23.4366, 0.03487, 24.4461, 0.0000000E+000, 0.0000000E+000
 500,-0.40821,-0.0586382, 608.452, 630.021, 25.5297, 23.4501, 0.03487, 24.4461, 0.0000000E+000, 0.0000000E+000