File: PMMA/Calibration_Results/NIST_FSRI/All_Props/NIST[NIST_FSRI]_Gasification_q50_R3_Mass.csv
s,kg/m2,,C,C,C,C,m,kg/m2,kg/m2,kg/m2/s
Time,"SD","MF","TW1","TSB1","TAL1","TB1","DX1","SD1","SD_11","BR1"
 0.0000000E+000, 6.96179, 1.00004, 20.9, 20.9, 20.9, 20.9, 0.04157, 31.8161, 7.37, 0.0000000E+000
 1.5, 6.96179, 1.00004, 103.262, 20.9, 20.9, 20.9, 0.04157, 31.8161, 7.37, 1.6233e-16
 3.01, 6.96179, 1.00004, 138.681, 20.9, 20.9, 20.9, 0.04157, 31.8161, 7.37, 7.2302e-14
 4.51, 6.96179, 1.00004, 164.401, 20.9, 20.9, 20.9, 0.04157, 31.8161, 7.37, 3.32914e-12
 6.01, 6.96179, 1.00004, 185.322, 20.9, 20.9, 20.9, 0.04157, 31.8161, 7.37, 5.41216e-11
 7.51, 6.96179, 1.00004, 203.182, 20.9, 20.9, 20.9, 0.04157, 31.8161, 7.37, 4.77836e-10
 9.01, 6.96179, 1.00004, 218.864, 20.9, 20.9, 20.9, 0.04157, 31.8161, 7.37, 2.82119e-09
 10.51, 6.96179, 1.00004, 232.888, 20.9001, 20.9, 20.9, 0.04157, 31.8161, 7.37, 1.2522e-08
 12.01, 6.96179, 1.00004, 245.595, 20.9004, 20.9, 20.9, 0.04157, 31.8161, 7.37, 4.49288e-08
 13.51, 6.96179, 1.00004, 257.221, 20.9014, 20.9, 20.9, 0.04157, 31.8161, 7.37, 1.36745e-07
 15.01, 6.96179, 1.00004, 267.939, 20.904, 20.9, 20.9, 0.04157, 31.8161, 7.37, 3.65124e-07
 16.51, 6.96179, 1.00004, 277.88, 20.9094, 20.9, 20.9, 0.04157, 31.8161, 7.37, 8.76403e-07
 18, 6.96179, 1.00004, 287.117, 20.9196, 20.9, 20.9, 0.04157, 31.8161, 7.37, 1.92102e-06
 19.5, 6.96178, 1.00004, 295.762, 20.9371, 20.9, 20.9, 0.04157, 31.8161, 7.36999, 3.91135e-06
 21, 6.96177, 1.00004, 303.908, 20.9649, 20.9, 20.9, 0.04157, 31.8161, 7.36998, 7.49277e-06
 22.5, 6.96176, 1.00004, 311.579, 21.0064, 20.9, 20.9, 0.04157, 31.8161, 7.36997, 1.3589e-05
 24, 6.96173, 1.00003, 318.818, 21.065, 20.9, 20.9, 0.0415699, 31.8161, 7.36994, 2.34958e-05
 25.5, 6.96167, 1.00003, 325.662, 21.1446, 20.9, 20.9, 0.0415699, 31.816, 7.36989, 3.89489e-05
 27, 6.96159, 1.00001, 332.139, 21.2486, 20.9, 20.9, 0.0415698, 31.8159, 7.36982, 6.21852e-05
 28.5, 6.96147, 0.999995, 338.273, 21.3807, 20.9, 20.9, 0.0415697, 31.8158, 7.3697, 9.59794e-05
 30, 6.96128, 0.999968, 344.081, 21.5442, 20.9, 20.9, 0.0415696, 31.8156, 7.36952, 0.000143638
 31.5, 6.961, 0.999928, 349.575, 21.7422, 20.9, 20.9, 0.0415693, 31.8154, 7.36926, 0.000208932
 33, 6.9606, 0.999871, 354.766, 21.9774, 20.9, 20.9, 0.041569, 31.815, 7.36889, 0.000295952
 34.5, 6.96004, 0.999791, 359.656, 22.2523, 20.9, 20.9, 0.0415685, 31.8145, 7.36836, 0.000408861
 36, 6.95929, 0.999683, 364.249, 22.569, 20.9, 20.9, 0.0415679, 31.8138, 7.36764, 0.000551564
 37.5, 6.95829, 0.999539, 368.546, 22.9293, 20.9, 20.9, 0.041567, 31.8128, 7.36668, 0.000727294
 39, 6.95699, 0.999352, 372.546, 23.3347, 20.9, 20.9, 0.0415659, 31.8116, 7.36544, 0.00093819
 40.5, 6.95534, 0.999115, 376.25, 23.7862, 20.9, 20.9, 0.0415644, 31.81, 7.36385, 0.00118491
 42, 6.95328, 0.998819, 379.659, 24.2848, 20.9, 20.9, 0.0415626, 31.808, 7.36186, 0.00146638
 43.51, 6.95077, 0.998458, 382.79, 24.8329, 20.9, 20.9, 0.0415604, 31.8055, 7.35942, 0.00178089
 45.01, 6.94775, 0.998026, 385.639, 25.4293, 20.9, 20.9, 0.0415577, 31.8026, 7.35648, 0.00212316
 46.51, 6.94421, 0.997516, 388.21, 26.0719, 20.9, 20.9, 0.0415546, 31.7991, 7.35302, 0.00248635
 48.01, 6.9401, 0.996926, 390.526, 26.7625, 20.9, 20.9, 0.0415509, 31.7951, 7.34901, 0.00286534
 49.51, 6.93542, 0.996253, 392.607, 27.5008, 20.9, 20.9, 0.0415467, 31.7905, 7.34441, 0.00325392
 51.01, 6.93014, 0.995496, 394.472, 28.2864, 20.9, 20.9, 0.041542, 31.7854, 7.33923, 0.0036462
 52.51, 6.92428, 0.994654, 396.14, 29.1186, 20.9, 20.9, 0.0415368, 31.7796, 7.33347, 0.00403703
 54.01, 6.91784, 0.993728, 397.631, 29.9966, 20.9, 20.9, 0.041531, 31.7732, 7.32712, 0.00442224
 55.51, 6.91083, 0.992721, 398.964, 30.9197, 20.9, 20.9, 0.0415247, 31.7663, 7.3202, 0.00479825
 57.01, 6.90327, 0.991635, 400.158, 31.8868, 20.9, 20.9, 0.0415179, 31.7588, 7.31272, 0.00516294
 58.51, 6.89517, 0.990472, 401.23, 32.897, 20.9, 20.9, 0.0415106, 31.7508, 7.30471, 0.00551489
 60.01, 6.88656, 0.989235, 402.193, 33.949, 20.9, 20.9, 0.0415029, 31.7423, 7.29618, 0.00585284
 61.51, 6.87745, 0.987927, 403.061, 35.0417, 20.9, 20.9, 0.0414947, 31.7333, 7.28715, 0.00617639
 63.01, 6.86788, 0.986551, 403.844, 36.1738, 20.9, 20.9, 0.041486, 31.7238, 7.27765, 0.00648539
 64.51, 6.85785, 0.985111, 404.556, 37.3439, 20.9, 20.9, 0.041477, 31.7138, 7.26769, 0.00678068
 66.01, 6.8474, 0.983609, 405.205, 38.5509, 20.9, 20.9, 0.0414676, 31.7034, 7.25731, 0.0070629
 67.51, 6.83653, 0.982049, 405.795, 39.7931, 20.9, 20.9, 0.0414577, 31.6926, 7.24651, 0.00733142
 69.01, 6.82528, 0.980432, 406.334, 41.0694, 20.9, 20.9, 0.0414476, 31.6814, 7.23531, 0.00758721
 70.51, 6.81365, 0.978762, 406.833, 42.3781, 20.9, 20.9, 0.041437, 31.6699, 7.22375, 0.00783261
 72.01, 6.80167, 0.977041, 407.286, 43.718, 20.9, 20.9, 0.0414262, 31.6579, 7.21182, 0.00806486
 73.5, 6.78935, 0.975271, 407.709, 45.0783, 20.9, 20.9, 0.0414151, 31.6458, 7.19963, 0.00828797
 75, 6.7767, 0.973454, 408.097, 46.4759, 20.9, 20.9, 0.0414037, 31.6332, 7.18704, 0.00850044
 76.5, 6.76374, 0.971592, 408.462, 47.9004, 20.9, 20.9, 0.0413919, 31.6202, 7.17413, 0.00870589
 78, 6.75048, 0.969688, 408.799, 49.3503, 20.9, 20.9, 0.0413799, 31.607, 7.16092, 0.00890167
 79.5, 6.73694, 0.967743, 409.109, 50.8242, 20.9, 20.9, 0.0413677, 31.5935, 7.14743, 0.00908782
 81, 6.72312, 0.965758, 409.41, 52.321, 20.9, 20.9, 0.0413551, 31.5798, 7.13365, 0.00927103
 82.5, 6.70904, 0.963735, 409.683, 53.8391, 20.9, 20.9, 0.0413424, 31.5657, 7.11961, 0.00944398
 84, 6.69471, 0.961676, 409.937, 55.3774, 20.9, 20.9, 0.0413294, 31.5514, 7.10532, 0.00960896
 85.5, 6.68013, 0.959582, 410.188, 56.9346, 20.9, 20.9, 0.0413162, 31.5369, 7.09078, 0.00977355
 87, 6.66531, 0.957453, 410.416, 58.5094, 20.9, 20.9, 0.0413027, 31.5221, 7.076, 0.00992838
 88.5, 6.65027, 0.955292, 410.629, 60.1008, 20.9, 20.9, 0.0412891, 31.5071, 7.061, 0.0100771
 90, 6.635, 0.9531, 410.836, 61.7077, 20.9, 20.9, 0.0412752, 31.4919, 7.04577, 0.0102226
 91.5, 6.61953, 0.950876, 411.034, 63.3289, 20.9, 20.9, 0.0412612, 31.4764, 7.03033, 0.0103657
 93, 6.60384, 0.948623, 411.216, 64.9633, 20.9, 20.9, 0.041247, 31.4608, 7.01468, 0.0105011
 94.5, 6.58796, 0.946341, 411.387, 66.6101, 20.9, 20.9, 0.0412326, 31.4449, 6.99883, 0.0106314
 96, 6.57188, 0.944032, 411.551, 68.2683, 20.9, 20.9, 0.041218, 31.4289, 6.98278, 0.0107584
 97.5, 6.55561, 0.941695, 411.719, 69.9369, 20.9, 20.9, 0.0412032, 31.4127, 6.96654, 0.0108876
 99, 6.53916, 0.939331, 411.869, 71.6152, 20.9, 20.9, 0.0411883, 31.3962, 6.95012, 0.0110089
 100.5, 6.52252, 0.936942, 412.012, 73.3023, 20.9, 20.9, 0.0411732, 31.3796, 6.93352, 0.0111262
 102, 6.50572, 0.934528, 412.147, 74.9974, 20.9, 20.9, 0.0411579, 31.3629, 6.91674, 0.0112396
 103.5, 6.48875, 0.932091, 412.276, 76.6999, 20.9, 20.9, 0.0411425, 31.3459, 6.8998, 0.0113504
 105, 6.4716, 0.929628, 412.414, 78.4089, 20.9, 20.9, 0.041127, 31.3288, 6.88268, 0.0114659
 106.5, 6.4543, 0.927142, 412.536, 80.124, 20.9, 20.9, 0.0411113, 31.3115, 6.8654, 0.0115736
 108, 6.43683, 0.924633, 412.651, 81.8444, 20.9, 20.9, 0.0410954, 31.2941, 6.84796, 0.0116777
 109.5, 6.41921, 0.922102, 412.762, 83.5695, 20.9, 20.9, 0.0410794, 31.2765, 6.83037, 0.0117798
 111, 6.40144, 0.919549, 412.868, 85.299, 20.9, 20.9, 0.0410633, 31.2587, 6.81262, 0.011879
 112.5, 6.38352, 0.916975, 412.971, 87.0321, 20.9001, 20.9, 0.041047, 31.2408, 6.79473, 0.0119767
 114, 6.36545, 0.914379, 413.084, 88.7684, 20.9001, 20.9, 0.0410306, 31.2228, 6.77668, 0.0120804
 115.5, 6.34723, 0.911762, 413.182, 90.5076, 20.9001, 20.9, 0.0410141, 31.2046, 6.75849, 0.0121766
 117, 6.32888, 0.909125, 413.275, 92.2491, 20.9001, 20.9, 0.0409974, 31.1863, 6.74015, 0.0122696
 118.5, 6.31038, 0.906468, 413.364, 93.9926, 20.9001, 20.9, 0.0409806, 31.1678, 6.72168, 0.0123609
 120, 6.29175, 0.903792, 413.451, 95.7377, 20.9001, 20.9, 0.0409637, 31.1492, 6.70307, 0.0124513
 121.5, 6.27298, 0.901096, 413.535, 97.4841, 20.9001, 20.9, 0.0409467, 31.1304, 6.68433, 0.0125396
 123, 6.25408, 0.898381, 413.623, 99.2313, 20.9002, 20.9, 0.0409295, 31.1116, 6.66545, 0.0126301
 124.5, 6.23504, 0.895646, 413.711, 100.979, 20.9002, 20.9, 0.0409122, 31.0926, 6.64643, 0.0127223
 126, 6.21587, 0.892892, 413.791, 102.727, 20.9002, 20.9, 0.0408948, 31.0734, 6.62728, 0.0128096
 127.5, 6.19657, 0.89012, 413.867, 104.476, 20.9002, 20.9, 0.0408773, 31.0541, 6.608, 0.0128942
 129, 6.17714, 0.887329, 413.939, 106.224, 20.9003, 20.9, 0.0408596, 31.0347, 6.5886, 0.0129773
 130.5, 6.15759, 0.884521, 414.011, 107.972, 20.9003, 20.9, 0.0408419, 31.0152, 6.56907, 0.0130601
 132, 6.13792, 0.881695, 414.081, 109.719, 20.9003, 20.9, 0.040824, 30.9955, 6.54942, 0.0131422
 133.5, 6.11813, 0.878852, 414.148, 111.466, 20.9004, 20.9001, 0.040806, 30.9758, 6.52964, 0.0132229
 135, 6.0982, 0.87599, 414.227, 113.211, 20.9004, 20.9001, 0.0407879, 30.9559, 6.50974, 0.0133104
 136.5, 6.07815, 0.87311, 414.296, 114.956, 20.9005, 20.9001, 0.0407697, 30.9358, 6.48971, 0.0133934
 138, 6.05798, 0.870212, 414.361, 116.699, 20.9006, 20.9001, 0.0407514, 30.9157, 6.46956, 0.0134742
 139.5, 6.03769, 0.867297, 414.423, 118.441, 20.9006, 20.9001, 0.040733, 30.8954, 6.44929, 0.0135529
 141, 6.01728, 0.864366, 414.484, 120.181, 20.9007, 20.9001, 0.0407145, 30.875, 6.4289, 0.0136307
 142.5, 5.99676, 0.861418, 414.542, 121.92, 20.9008, 20.9001, 0.0406958, 30.8545, 6.4084, 0.0137078
 144, 5.97612, 0.858453, 414.602, 123.657, 20.9009, 20.9001, 0.0406771, 30.8339, 6.38778, 0.0137859
 145.5, 5.95536, 0.855471, 414.659, 125.392, 20.901, 20.9001, 0.0406582, 30.8132, 6.36704, 0.0138626
 147, 5.93449, 0.852472, 414.726, 127.125, 20.9011, 20.9002, 0.0406393, 30.7923, 6.34618, 0.0139454
 148.5, 5.91349, 0.849456, 414.786, 128.856, 20.9012, 20.9002, 0.0406202, 30.7713, 6.3252, 0.0140251
 150, 5.89237, 0.846423, 414.843, 130.585, 20.9013, 20.9002, 0.040601, 30.7502, 6.30411, 0.0141031
 151.5, 5.87114, 0.843373, 414.897, 132.312, 20.9015, 20.9002, 0.0405817, 30.729, 6.28289, 0.0141794
 153, 5.84979, 0.840307, 414.949, 134.037, 20.9016, 20.9003, 0.0405623, 30.7077, 6.26157, 0.0142546
 154.5, 5.82834, 0.837224, 415, 135.76, 20.9018, 20.9003, 0.0405428, 30.6863, 6.24013, 0.0143292
 156, 5.80677, 0.834126, 415.05, 137.48, 20.902, 20.9003, 0.0405233, 30.6647, 6.21858, 0.0144035
 157.5, 5.78509, 0.831011, 415.101, 139.198, 20.9022, 20.9004, 0.0405036, 30.643, 6.19692, 0.0144793
 159, 5.76329, 0.827881, 415.15, 140.914, 20.9024, 20.9004, 0.0404838, 30.6213, 6.17514, 0.0145538
 160.51, 5.74138, 0.824733, 415.213, 142.639, 20.9026, 20.9004, 0.0404637, 30.5992, 6.1531, 0.0146375
 162.01, 5.71934, 0.821568, 415.263, 144.35, 20.9028, 20.9005, 0.0404437, 30.5772, 6.13109, 0.0147141
 163.51, 5.6972, 0.818386, 415.312, 146.059, 20.9031, 20.9005, 0.0404236, 30.5551, 6.10896, 0.0147901
 165.01, 5.67494, 0.815189, 415.359, 147.766, 20.9034, 20.9006, 0.0404034, 30.5328, 6.08671, 0.0148651
 166.51, 5.65256, 0.811975, 415.405, 149.47, 20.9036, 20.9006, 0.0403831, 30.5105, 6.06436, 0.0149392
 168.01, 5.63008, 0.808746, 415.449, 151.171, 20.9039, 20.9007, 0.0403626, 30.488, 6.0419, 0.0150128
 169.51, 5.60749, 0.8055, 415.493, 152.871, 20.9043, 20.9008, 0.0403421, 30.4654, 6.01932, 0.0150859
 171.01, 5.58479, 0.802239, 415.537, 154.568, 20.9046, 20.9009, 0.0403215, 30.4428, 5.99664, 0.0151612
 172.51, 5.56197, 0.798961, 415.581, 156.262, 20.905, 20.9009, 0.0403008, 30.42, 5.97384, 0.0152355
 174.01, 5.53903, 0.795667, 415.639, 157.954, 20.9054, 20.901, 0.0402799, 30.397, 5.95092, 0.0153189
 175.51, 5.51598, 0.792355, 415.684, 159.644, 20.9058, 20.9011, 0.040259, 30.374, 5.92788, 0.0153952
 177.01, 5.49281, 0.789027, 415.726, 161.331, 20.9062, 20.9012, 0.0402379, 30.3509, 5.90473, 0.0154704
 178.51, 5.46953, 0.785682, 415.769, 163.016, 20.9067, 20.9013, 0.0402168, 30.3276, 5.88147, 0.0155464
 180.01, 5.44613, 0.782322, 415.81, 164.699, 20.9072, 20.9014, 0.0401955, 30.3042, 5.85809, 0.0156207
 181.51, 5.42263, 0.778945, 415.85, 166.379, 20.9077, 20.9016, 0.0401742, 30.2807, 5.83461, 0.0156949
 183.01, 5.39901, 0.775553, 415.889, 168.057, 20.9083, 20.9017, 0.0401527, 30.2571, 5.81101, 0.0157686
 184.51, 5.37529, 0.772145, 415.928, 169.732, 20.9088, 20.9018, 0.0401312, 30.2334, 5.7873, 0.0158432
 186.01, 5.35144, 0.76872, 415.969, 171.405, 20.9095, 20.902, 0.0401095, 30.2096, 5.76348, 0.0159192
 187.51, 5.32748, 0.765278, 416.021, 173.076, 20.9101, 20.9021, 0.0400878, 30.1857, 5.73954, 0.0160027
 189.01, 5.3034, 0.761819, 416.063, 174.745, 20.9108, 20.9023, 0.0400659, 30.1616, 5.71547, 0.016081
 190.51, 5.2792, 0.758343, 416.101, 176.411, 20.9115, 20.9025, 0.0400439, 30.1374, 5.69129, 0.016157
 192.01, 5.25489, 0.75485, 416.14, 178.075, 20.9122, 20.9027, 0.0400218, 30.1131, 5.667, 0.016234
 193.51, 5.23046, 0.751341, 416.178, 179.737, 20.913, 20.9029, 0.0399996, 30.0887, 5.64259, 0.0163103
 195.01, 5.20592, 0.747816, 416.214, 181.397, 20.9138, 20.9031, 0.0399773, 30.0642, 5.61807, 0.0163859
 196.51, 5.18127, 0.744275, 416.25, 183.054, 20.9147, 20.9033, 0.0399549, 30.0395, 5.59343, 0.0164613
 198.01, 5.1565, 0.740717, 416.285, 184.709, 20.9156, 20.9035, 0.0399324, 30.0148, 5.56868, 0.0165364
 199.51, 5.13162, 0.737143, 416.322, 186.362, 20.9165, 20.9038, 0.0399098, 29.9899, 5.54382, 0.0166141
 201.01, 5.10662, 0.733551, 416.366, 188.013, 20.9175, 20.9041, 0.0398871, 29.965, 5.51884, 0.0166966
 202.51, 5.08149, 0.729942, 416.41, 189.661, 20.9185, 20.9044, 0.0398643, 29.9398, 5.49373, 0.0167802
 204.01, 5.05624, 0.726315, 416.446, 191.308, 20.9195, 20.9046, 0.0398414, 29.9146, 5.4685, 0.0168581
 205.51, 5.03087, 0.722671, 416.48, 192.952, 20.9206, 20.905, 0.0398183, 29.8893, 5.44315, 0.0169358
 207.01, 5.00539, 0.71901, 416.516, 194.594, 20.9218, 20.9053, 0.0397952, 29.8638, 5.41769, 0.0170157
 208.51, 4.97979, 0.715333, 416.55, 196.234, 20.923, 20.9056, 0.0397719, 29.8382, 5.3921, 0.0170937
 210.01, 4.95407, 0.711638, 416.583, 197.873, 20.9242, 20.906, 0.0397485, 29.8125, 5.3664, 0.0171716
 211.51, 4.92824, 0.707927, 416.615, 199.509, 20.9255, 20.9064, 0.0397251, 29.7867, 5.34059, 0.0172494
 213.01, 4.90228, 0.704199, 416.647, 201.142, 20.9268, 20.9068, 0.0397015, 29.7608, 5.31465, 0.0173272
 214.51, 4.87621, 0.700454, 416.682, 202.774, 20.9282, 20.9072, 0.0396778, 29.7347, 5.2886, 0.0174085
 216.01, 4.85001, 0.69669, 416.731, 204.404, 20.9297, 20.9076, 0.039654, 29.7085, 5.26242, 0.0174996
 217.51, 4.82367, 0.692907, 416.765, 206.032, 20.9312, 20.9081, 0.0396301, 29.6822, 5.23611, 0.0175815
 219.01, 4.79722, 0.689108, 416.796, 207.658, 20.9327, 20.9086, 0.0396061, 29.6558, 5.20967, 0.0176615
 220.51, 4.77065, 0.68529, 416.829, 209.281, 20.9343, 20.9091, 0.0395819, 29.6292, 5.18312, 0.017743
 222.01, 4.74395, 0.681455, 416.862, 210.903, 20.936, 20.9096, 0.0395577, 29.6026, 5.15644, 0.0178257
 223.51, 4.71713, 0.677603, 416.892, 212.523, 20.9377, 20.9101, 0.0395333, 29.5758, 5.12964, 0.0179065
 225.01, 4.69019, 0.673733, 416.923, 214.141, 20.9395, 20.9107, 0.0395088, 29.5488, 5.10272, 0.0179879
 226.51, 4.66313, 0.669845, 416.952, 215.756, 20.9413, 20.9113, 0.0394843, 29.5218, 5.07568, 0.018069
 228.01, 4.63594, 0.66594, 416.983, 217.37, 20.9432, 20.9119, 0.0394596, 29.4946, 5.04851, 0.0181519
 229.51, 4.60862, 0.662016, 417.028, 218.982, 20.9452, 20.9126, 0.0394347, 29.4673, 5.02121, 0.0182455
 231.01, 4.58117, 0.658072, 417.063, 220.591, 20.9472, 20.9133, 0.0394098, 29.4399, 4.99378, 0.0183336
 232.51, 4.55358, 0.654109, 417.093, 222.199, 20.9493, 20.914, 0.0393847, 29.4123, 4.96621, 0.0184177
 234.01, 4.52587, 0.650129, 417.121, 223.805, 20.9514, 20.9147, 0.0393596, 29.3846, 4.93852, 0.0185012
 235.51, 4.49803, 0.64613, 417.153, 225.408, 20.9536, 20.9155, 0.0393343, 29.3568, 4.91071, 0.0185885
 237.01, 4.47006, 0.642112, 417.183, 227.01, 20.9559, 20.9162, 0.0393089, 29.3289, 4.88276, 0.0186743
 238.51, 4.44197, 0.638076, 417.211, 228.609, 20.9583, 20.9171, 0.0392833, 29.3008, 4.85468, 0.0187592
 240.01, 4.41374, 0.634022, 417.239, 230.206, 20.9607, 20.9179, 0.0392577, 29.2726, 4.82648, 0.0188451
 241.51, 4.38539, 0.629949, 417.266, 231.801, 20.9632, 20.9188, 0.0392319, 29.2443, 4.79814, 0.0189306
 243.01, 4.3569, 0.625857, 417.306, 233.394, 20.9657, 20.9197, 0.0392061, 29.2158, 4.76968, 0.0190263
 244.51, 4.32827, 0.621743, 417.343, 234.985, 20.9684, 20.9207, 0.0391801, 29.1872, 4.74107, 0.0191218
 246.01, 4.29949, 0.61761, 417.372, 236.573, 20.9711, 20.9216, 0.0391539, 29.1584, 4.71231, 0.0192117
 247.51, 4.27059, 0.613458, 417.399, 238.16, 20.9739, 20.9227, 0.0391277, 29.1295, 4.68343, 0.0193
 249.01, 4.24155, 0.609287, 417.425, 239.744, 20.9767, 20.9237, 0.0391013, 29.1005, 4.65441, 0.0193886
 250.51, 4.21237, 0.605095, 417.456, 241.325, 20.9796, 20.9248, 0.0390748, 29.0714, 4.62526, 0.0194825
 252.01, 4.18306, 0.600884, 417.482, 242.905, 20.9827, 20.9259, 0.0390481, 29.0421, 4.59597, 0.019573
 253.51, 4.15361, 0.596654, 417.508, 244.481, 20.9857, 20.9271, 0.0390214, 29.0127, 4.56654, 0.0196631
 255.01, 4.12402, 0.592404, 417.534, 246.056, 20.9889, 20.9283, 0.0389945, 28.9831, 4.53697, 0.0197548
 256.51, 4.09429, 0.588134, 417.567, 247.628, 20.9921, 20.9295, 0.0389675, 28.9534, 4.50727, 0.0198514
 258.01, 4.06441, 0.583841, 417.607, 249.197, 20.9955, 20.9308, 0.0389404, 28.9235, 4.47741, 0.019956
 259.51, 4.03438, 0.579527, 417.635, 250.763, 20.9989, 20.9322, 0.0389131, 28.8935, 4.4474, 0.0200522
 261.01, 4.00421, 0.575193, 417.66, 252.327, 21.0024, 20.9335, 0.0388857, 28.8634, 4.41725, 0.020147
 262.51, 3.97389, 0.570839, 417.685, 253.888, 21.0059, 20.9349, 0.0388581, 28.8331, 4.38696, 0.0202413
 264.01, 3.94343, 0.566463, 417.712, 255.445, 21.0096, 20.9364, 0.0388305, 28.8026, 4.35653, 0.0203394
 265.51, 3.91283, 0.562066, 417.74, 257, 21.0134, 20.9379, 0.0388027, 28.7721, 4.32594, 0.0204383
 267.01, 3.88207, 0.557649, 417.764, 258.551, 21.0172, 20.9394, 0.0387747, 28.7413, 4.29521, 0.020535
 268.51, 3.85117, 0.55321, 417.787, 260.1, 21.0211, 20.941, 0.0387467, 28.7105, 4.26433, 0.0206318
 270.01, 3.82012, 0.54875, 417.819, 261.644, 21.0251, 20.9427, 0.0387185, 28.6794, 4.23331, 0.020735
 271.51, 3.78891, 0.544266, 417.858, 263.185, 21.0292, 20.9443, 0.0386901, 28.6482, 4.20212, 0.0208474
 273.01, 3.75753, 0.539759, 417.884, 264.723, 21.0334, 20.9461, 0.0386616, 28.6169, 4.17077, 0.02095
 274.51, 3.726, 0.53523, 417.908, 266.257, 21.0377, 20.9478, 0.038633, 28.5854, 4.13927, 0.0210525
 276.01, 3.69432, 0.530679, 417.932, 267.786, 21.042, 20.9497, 0.0386042, 28.5537, 4.10761, 0.0211542
 277.51, 3.66249, 0.526106, 417.956, 269.312, 21.0465, 20.9516, 0.0385753, 28.5219, 4.0758, 0.0212586
 279.01, 3.63049, 0.52151, 417.982, 270.833, 21.051, 20.9535, 0.0385462, 28.49, 4.04383, 0.021365
 280.51, 3.59834, 0.516892, 418.006, 272.347, 21.0557, 20.9555, 0.038517, 28.4578, 4.01171, 0.0214705
 282.01, 3.56603, 0.51225, 418.028, 273.854, 21.0604, 20.9575, 0.0384877, 28.4255, 3.97942, 0.0215753
 283.51, 3.53356, 0.507586, 418.061, 275.355, 21.0653, 20.9596, 0.0384582, 28.3931, 3.94698, 0.0216872
 285.01, 3.50091, 0.502896, 418.095, 276.851, 21.0702, 20.9617, 0.0384285, 28.3605, 3.91435, 0.0218067
 286.51, 3.46809, 0.498181, 418.12, 278.341, 21.0752, 20.9639, 0.0383987, 28.3277, 3.88156, 0.0219171
 288.01, 3.4351, 0.493443, 418.142, 279.826, 21.0803, 20.9662, 0.0383687, 28.2947, 3.8486, 0.0220259
 289.51, 3.40195, 0.488681, 418.164, 281.304, 21.0856, 20.9685, 0.0383386, 28.2616, 3.81548, 0.0221369
 291.01, 3.36864, 0.483895, 418.188, 282.776, 21.0909, 20.9709, 0.0383084, 28.2283, 3.78219, 0.0222491
 292.51, 3.33515, 0.479085, 418.212, 284.242, 21.0963, 20.9733, 0.0382779, 28.1948, 3.74873, 0.0223633
 294.01, 3.30149, 0.47425, 418.234, 285.701, 21.1018, 20.9758, 0.0382474, 28.1612, 3.7151, 0.0224769
 295.51, 3.26766, 0.46939, 418.255, 287.153, 21.1075, 20.9784, 0.0382166, 28.1274, 3.68129, 0.0225898
 297.01, 3.23365, 0.464505, 418.29, 288.599, 21.1132, 20.981, 0.0381857, 28.0934, 3.64732, 0.0227139
 298.51, 3.19946, 0.459593, 418.318, 290.035, 21.119, 20.9836, 0.0381547, 28.0593, 3.61315, 0.0228368
 300.01, 3.16509, 0.454656, 418.341, 291.465, 21.1249, 20.9864, 0.0381235, 28.0249, 3.57881, 0.0229554
 301.51, 3.13054, 0.449693, 418.361, 292.884, 21.131, 20.9892, 0.0380921, 27.9904, 3.54429, 0.0230715
 303.01, 3.09581, 0.444705, 418.38, 294.295, 21.1371, 20.992, 0.0380605, 27.9557, 3.50959, 0.0231875
 304.51, 3.06091, 0.439691, 418.404, 295.696, 21.1434, 20.995, 0.0380288, 27.9208, 3.47472, 0.0233103
 306.01, 3.02583, 0.434651, 418.425, 297.087, 21.1497, 20.998, 0.037997, 27.8858, 3.43966, 0.0234298
 307.51, 2.99056, 0.429586, 418.444, 298.47, 21.1562, 21.001, 0.0379649, 27.8505, 3.40443, 0.0235484
 309.01, 2.95512, 0.424494, 418.472, 299.842, 21.1627, 21.0041, 0.0379327, 27.8151, 3.36901, 0.0236734
 310.51, 2.91948, 0.419375, 418.5, 301.204, 21.1694, 21.0073, 0.0379004, 27.7795, 3.3334, 0.0238018
 312.01, 2.88365, 0.414228, 418.523, 302.556, 21.1762, 21.0106, 0.0378678, 27.7437, 3.2976, 0.0239271
 313.51, 2.84763, 0.409055, 418.543, 303.898, 21.1831, 21.0139, 0.0378351, 27.7077, 3.26162, 0.0240501
 315.01, 2.81144, 0.403855, 418.561, 305.229, 21.1901, 21.0173, 0.0378022, 27.6716, 3.22545, 0.0241703
 316.51, 2.77506, 0.39863, 418.578, 306.549, 21.1972, 21.0208, 0.0377692, 27.6352, 3.1891, 0.0242898
 318.01, 2.7385, 0.393378, 418.601, 307.858, 21.2044, 21.0243, 0.037736, 27.5987, 3.15257, 0.0244166
 319.51, 2.70175, 0.388099, 418.619, 309.156, 21.2117, 21.0279, 0.0377026, 27.562, 3.11585, 0.0245385
 321.01, 2.66483, 0.382795, 418.635, 310.442, 21.2192, 21.0316, 0.0376691, 27.5251, 3.07896, 0.0246577
 322.51, 2.62771, 0.377463, 418.667, 311.716, 21.2267, 21.0354, 0.0376353, 27.488, 3.04187, 0.0247896
 324.01, 2.5904, 0.372103, 418.691, 312.977, 21.2344, 21.0392, 0.0376014, 27.4507, 3.00459, 0.0249173
 325.51, 2.5529, 0.366717, 418.707, 314.227, 21.2422, 21.0431, 0.0375674, 27.4132, 2.96712, 0.0250366
 327.01, 2.51522, 0.361305, 418.724, 315.464, 21.2501, 21.0471, 0.0375332, 27.3756, 2.92947, 0.0251579
 328.51, 2.47737, 0.355867, 418.739, 316.69, 21.2581, 21.0512, 0.0374988, 27.3378, 2.89165, 0.0252746
 330.01, 2.43934, 0.350404, 418.758, 317.903, 21.2662, 21.0553, 0.0374642, 27.2998, 2.85364, 0.0253953
 331.51, 2.40113, 0.344915, 418.776, 319.106, 21.2745, 21.0595, 0.0374295, 27.2616, 2.81546, 0.025514
 333.01, 2.36274, 0.339401, 418.79, 320.297, 21.2828, 21.0638, 0.0373946, 27.2232, 2.7771, 0.0256286
 334.51, 2.32418, 0.333861, 418.817, 321.476, 21.2913, 21.0682, 0.0373596, 27.1847, 2.73857, 0.0257503
 336.01, 2.28543, 0.328296, 418.84, 322.644, 21.2999, 21.0726, 0.0373244, 27.146, 2.69985, 0.0258718
 337.51, 2.24651, 0.322705, 418.856, 323.803, 21.3086, 21.0772, 0.0372891, 27.1071, 2.66096, 0.0259849
 339.01, 2.20742, 0.31709, 418.87, 324.951, 21.3174, 21.0818, 0.0372535, 27.068, 2.6219, 0.0260935
 340.51, 2.16817, 0.311452, 418.885, 326.09, 21.3264, 21.0865, 0.0372179, 27.0288, 2.58267, 0.0262017
 342.01, 2.12876, 0.305791, 418.903, 327.219, 21.3354, 21.0912, 0.0371821, 26.9894, 2.54329, 0.0263126
 343.51, 2.08919, 0.300106, 418.917, 328.339, 21.3446, 21.0961, 0.0371461, 26.9499, 2.50374, 0.0264164
 345.01, 2.04946, 0.294399, 418.933, 329.451, 21.3539, 21.101, 0.03711, 26.9102, 2.46404, 0.0265209
 346.51, 2.00957, 0.288669, 418.958, 330.555, 21.3633, 21.1061, 0.0370738, 26.8703, 2.42417, 0.0266284
 348.01, 1.96952, 0.282917, 418.979, 331.653, 21.3729, 21.1112, 0.0370374, 26.8303, 2.38415, 0.0267341
 349.51, 1.92932, 0.277141, 418.997, 332.745, 21.3825, 21.1164, 0.0370009, 26.7901, 2.34397, 0.0268348
 351.01, 1.88898, 0.271346, 419.009, 333.832, 21.3923, 21.1216, 0.0369642, 26.7498, 2.30365, 0.0269273
 352.51, 1.84849, 0.26553, 419.025, 334.915, 21.4022, 21.127, 0.0369274, 26.7093, 2.26319, 0.0270209
 354.01, 1.80786, 0.259694, 419.045, 335.994, 21.4122, 21.1325, 0.0368905, 26.6687, 2.22258, 0.0271163
 355.51, 1.7671, 0.253839, 419.061, 337.071, 21.4224, 21.138, 0.0368535, 26.628, 2.18184, 0.0272049
 357.01, 1.72621, 0.247965, 419.077, 338.147, 21.4327, 21.1436, 0.0368163, 26.5871, 2.14097, 0.0272917
 358.51, 1.68517, 0.242071, 419.109, 339.222, 21.4431, 21.1493, 0.0367791, 26.5461, 2.09996, 0.0273874
 360.01, 1.64401, 0.236157, 419.129, 340.3, 21.4536, 21.1552, 0.0367416, 26.5049, 2.05881, 0.0274742
 361.51, 1.60271, 0.230225, 419.149, 341.379, 21.4642, 21.1611, 0.0367041, 26.4637, 2.01753, 0.0275575
 363.01, 1.56129, 0.224276, 419.167, 342.462, 21.475, 21.167, 0.0366665, 26.4223, 1.97614, 0.0276361
 364.51, 1.51976, 0.218309, 419.192, 343.55, 21.4859, 21.1731, 0.0366287, 26.3807, 1.93462, 0.0277184
 366.01, 1.4781, 0.212325, 419.215, 344.644, 21.4969, 21.1793, 0.0365909, 26.3391, 1.89298, 0.0277965
 367.51, 1.43634, 0.206326, 419.235, 345.745, 21.508, 21.1856, 0.0365529, 26.2974, 1.85124, 0.0278689
 369.01, 1.39445, 0.200309, 419.273, 346.853, 21.5193, 21.1919, 0.0365149, 26.2555, 1.80937, 0.0279519
 370.51, 1.35244, 0.194275, 419.304, 347.971, 21.5307, 21.1984, 0.0364767, 26.2135, 1.76738, 0.0280301
 372.01, 1.31032, 0.188225, 419.334, 349.1, 21.5422, 21.2049, 0.0364384, 26.1714, 1.72528, 0.0281042
 373.51, 1.2681, 0.182159, 419.363, 350.242, 21.5538, 21.2115, 0.0364001, 26.1292, 1.68307, 0.0281733
 375.01, 1.22576, 0.176078, 419.4, 351.398, 21.5656, 21.2183, 0.0363616, 26.0869, 1.64076, 0.0282469
 376.51, 1.18332, 0.169981, 419.437, 352.57, 21.5775, 21.2251, 0.036323, 26.0445, 1.59833, 0.0283174
 378.01, 1.14078, 0.16387, 419.472, 353.759, 21.5895, 21.232, 0.0362844, 26.0019, 1.55581, 0.028382
 379.51, 1.09813, 0.157743, 419.531, 354.966, 21.6017, 21.239, 0.0362456, 25.9593, 1.51317, 0.0284629
 381.01, 1.05537, 0.1516, 419.576, 356.194, 21.6139, 21.2462, 0.0362068, 25.9165, 1.47042, 0.0285311
 382.51, 1.0125, 0.145443, 419.626, 357.445, 21.6264, 21.2534, 0.0361678, 25.8737, 1.42758, 0.0285987
 384.01, 0.969535, 0.139271, 419.683, 358.72, 21.6389, 21.2607, 0.0361288, 25.8307, 1.38463, 0.0286674
 385.51, 0.926466, 0.133084, 419.744, 360.021, 21.6516, 21.2681, 0.0360896, 25.7877, 1.34157, 0.0287357
 387.01, 0.8833, 0.126884, 419.806, 361.35, 21.6643, 21.2756, 0.0360504, 25.7445, 1.29842, 0.0287988
 388.51, 0.840023, 0.120667, 419.892, 362.71, 21.6773, 21.2832, 0.0360111, 25.7013, 1.25516, 0.0288758
 390.01, 0.796642, 0.114435, 419.97, 364.104, 21.6903, 21.2909, 0.0359716, 25.6579, 1.2118, 0.0289423
 391.51, 0.753163, 0.10819, 420.059, 365.533, 21.7035, 21.2987, 0.0359321, 25.6145, 1.16834, 0.0290099
 393.01, 0.709582, 0.101929, 420.154, 367.002, 21.7168, 21.3066, 0.0358925, 25.5709, 1.12477, 0.0290752
 394.51, 0.665903, 0.0956551, 420.263, 368.511, 21.7302, 21.3147, 0.0358528, 25.5272, 1.08111, 0.029142
 396.01, 0.622117, 0.0893654, 420.388, 370.067, 21.7438, 21.3228, 0.035813, 25.4835, 1.03734, 0.0292137
 397.51, 0.57823, 0.0830612, 420.519, 371.672, 21.7575, 21.331, 0.0357732, 25.4396, 0.993468, 0.0292793
 399.01, 0.534247, 0.0767431, 420.669, 373.331, 21.7713, 21.3393, 0.0357332, 25.3956, 0.949501, 0.0293461
 400.51, 0.490165, 0.0704108, 420.835, 375.048, 21.7853, 21.3477, 0.0356931, 25.3516, 0.905435, 0.0294099
 402.01, 0.445982, 0.0640641, 421.025, 376.83, 21.7994, 21.3562, 0.035653, 25.3074, 0.861268, 0.0294782
 403.51, 0.401703, 0.0577035, 421.232, 378.684, 21.8136, 21.3649, 0.0356127, 25.2631, 0.817003, 0.0295393
 405.01, 0.357332, 0.0513298, 421.472, 380.614, 21.828, 21.3736, 0.0355724, 25.2188, 0.772647, 0.0296013
 406.51, 0.312866, 0.0449423, 421.744, 382.632, 21.8425, 21.3824, 0.035532, 25.1743, 0.728196, 0.0296629
 408.01, 0.268313, 0.0385424, 422.055, 384.746, 21.8571, 21.3914, 0.0354915, 25.1298, 0.683656, 0.0297207
 409.51, 0.223676, 0.0321305, 422.417, 386.967, 21.8718, 21.4004, 0.0354509, 25.0852, 0.639034, 0.0297772
 411.01, 0.178963, 0.0257075, 422.83, 389.311, 21.8867, 21.4096, 0.0354103, 25.0405, 0.594331, 0.0298247
 412.51, 0.134179, 0.0192744, 423.317, 391.793, 21.9017, 21.4188, 0.0353696, 24.9957, 0.549558, 0.0298697
 414.01, 0.089337, 0.012833, 423.892, 394.435, 21.9169, 21.4282, 0.0353288, 24.9508, 0.504725, 0.0299068
 415.51, 0.0444516, 0.00638535, 424.571, 397.262, 21.9322, 21.4377, 0.035288, 24.906, 0.459845, 0.0299307
 417.01,-0.000458144,-6.58111e-05, 425.39, 400.309, 21.9476, 21.4473, 0.0352472, 24.8611, 0.414938, 0.0299414
 418.51,-0.0453713,-0.00651746, 426.403, 403.632, 21.9631, 21.4569, 0.0352064, 24.8161, 0.370025, 0.0299441
 420.01,-0.090266,-0.0129665, 427.649, 407.295, 21.9788, 21.4667, 0.0351656, 24.7712, 0.325123, 0.0299179
 421.51,-0.135075,-0.0194031, 429.209, 411.366, 21.9946, 21.4766, 0.0351248, 24.7264, 0.280296, 0.0298448
 423.01,-0.179721,-0.0258163, 431.22, 415.978, 22.0105, 21.4867, 0.0350842, 24.6817, 0.235619, 0.0297151
 424.51,-0.224088,-0.0321896, 433.888, 421.337, 22.0266, 21.4968, 0.0350438, 24.6373, 0.191198, 0.0294974
 426.01,-0.26799,-0.038496, 437.574, 427.796, 22.0428, 21.507, 0.0350038, 24.5933, 0.147207, 0.0291318
 427.51,-0.311086,-0.0446866, 442.99, 436.048, 22.0592, 21.5174, 0.0349645, 24.5501, 0.10395, 0.0284862
 429.01,-0.352636,-0.0506552, 451.838, 447.765, 22.0756, 21.5278, 0.0349264, 24.5082, 0.0620737, 0.0272002
 430.51,-0.390374,-0.0560761, 470.099, 468.82, 22.0922, 21.5384, 0.0348913, 24.4696, 0.0234545, 0.023749
 432.01,-0.40821,-0.0586382, 542.704, 487.008, 22.109, 21.549, 0.03487, 24.4461, 0.0000000E+000, 0.0000000E+000
 433.51,-0.40821,-0.0586382, 569.041, 527.081, 22.1259, 21.5598, 0.03487, 24.4461, 0.0000000E+000, 0.0000000E+000
 435.01,-0.40821,-0.0586382, 580.818, 545.007, 22.1429, 21.5707, 0.03487, 24.4461, 0.0000000E+000, 0.0000000E+000
 436.51,-0.40821,-0.0586382, 588, 556.011, 22.16, 21.5817, 0.03487, 24.4461, 0.0000000E+000, 0.0000000E+000
 438.01,-0.40821,-0.0586382, 593.067, 563.729, 22.1773, 21.5928, 0.03487, 24.4461, 0.0000000E+000, 0.0000000E+000
 439.51,-0.40821,-0.0586382, 596.904, 569.557, 22.1947, 21.6041, 0.03487, 24.4461, 0.0000000E+000, 0.0000000E+000
 441.01,-0.40821,-0.0586382, 599.958, 574.177, 22.2122, 21.6154, 0.03487, 24.4461, 0.0000000E+000, 0.0000000E+000
 442.51,-0.40821,-0.0586382, 602.461, 577.964, 22.2299, 21.6269, 0.03487, 24.4461, 0.0000000E+000, 0.0000000E+000
 444.01,-0.40821,-0.0586382, 604.575, 581.152, 22.2477, 21.6384, 0.03487, 24.4461, 0.0000000E+000, 0.0000000E+000
 445.51,-0.40821,-0.0586382, 606.39, 583.888, 22.2657, 21.6501, 0.03487, 24.4461, 0.0000000E+000, 0.0000000E+000
 447.01,-0.40821,-0.0586382, 607.959, 586.252, 22.2838, 21.6619, 0.03487, 24.4461, 0.0000000E+000, 0.0000000E+000
 448.51,-0.40821,-0.0586382, 609.345, 588.333, 22.302, 21.6738, 0.03487, 24.4461, 0.0000000E+000, 0.0000000E+000
 450.01,-0.40821,-0.0586382, 610.577, 590.189, 22.3203, 21.6858, 0.03487, 24.4461, 0.0000000E+000, 0.0000000E+000
 451.51,-0.40821,-0.0586382, 611.696, 591.862, 22.3388, 21.698, 0.03487, 24.4461, 0.0000000E+000, 0.0000000E+000
 453.01,-0.40821,-0.0586382, 612.708, 593.379, 22.3574, 21.7102, 0.03487, 24.4461, 0.0000000E+000, 0.0000000E+000
 454.51,-0.40821,-0.0586382, 613.635, 594.766, 22.3762, 21.7226, 0.03487, 24.4461, 0.0000000E+000, 0.0000000E+000
 456.01,-0.40821,-0.0586382, 614.479, 596.04, 22.3951, 21.7351, 0.03487, 24.4461, 0.0000000E+000, 0.0000000E+000
 457.51,-0.40821,-0.0586382, 615.266, 597.217, 22.4141, 21.7477, 0.03487, 24.4461, 0.0000000E+000, 0.0000000E+000
 459.01,-0.40821,-0.0586382, 615.998, 598.308, 22.4333, 21.7604, 0.03487, 24.4461, 0.0000000E+000, 0.0000000E+000
 460.51,-0.40821,-0.0586382, 616.677, 599.324, 22.4525, 21.7732, 0.03487, 24.4461, 0.0000000E+000, 0.0000000E+000
 462.01,-0.40821,-0.0586382, 617.313, 600.277, 22.472, 21.7862, 0.03487, 24.4461, 0.0000000E+000, 0.0000000E+000
 463.51,-0.40821,-0.0586382, 617.907, 601.167, 22.4915, 21.7992, 0.03487, 24.4461, 0.0000000E+000, 0.0000000E+000
 465.01,-0.40821,-0.0586382, 618.467, 602.008, 22.5112, 21.8124, 0.03487, 24.4461, 0.0000000E+000, 0.0000000E+000
 466.51,-0.40821,-0.0586382, 619.006, 602.8, 22.531, 21.8257, 0.03487, 24.4461, 0.0000000E+000, 0.0000000E+000
 468.01,-0.40821,-0.0586382, 619.507, 603.547, 22.551, 21.8391, 0.03487, 24.4461, 0.0000000E+000, 0.0000000E+000
 469.51,-0.40821,-0.0586382, 619.976, 604.256, 22.5711, 21.8526, 0.03487, 24.4461, 0.0000000E+000, 0.0000000E+000
 471.01,-0.40821,-0.0586382, 620.424, 604.926, 22.5913, 21.8663, 0.03487, 24.4461, 0.0000000E+000, 0.0000000E+000
 472.51,-0.40821,-0.0586382, 620.858, 605.564, 22.6117, 21.88, 0.03487, 24.4461, 0.0000000E+000, 0.0000000E+000
 474.01,-0.40821,-0.0586382, 621.257, 606.169, 22.6322, 21.8939, 0.03487, 24.4461, 0.0000000E+000, 0.0000000E+000
 475.51,-0.40821,-0.0586382, 621.655, 606.749, 22.6528, 21.9079, 0.03487, 24.4461, 0.0000000E+000, 0.0000000E+000
 477.01,-0.40821,-0.0586382, 622.019, 607.302, 22.6736, 21.922, 0.03487, 24.4461, 0.0000000E+000, 0.0000000E+000
 478.51,-0.40821,-0.0586382, 622.377, 607.832, 22.6945, 21.9362, 0.03487, 24.4461, 0.0000000E+000, 0.0000000E+000
 480.01,-0.40821,-0.0586382, 622.716, 608.34, 22.7156, 21.9506, 0.03487, 24.4461, 0.0000000E+000, 0.0000000E+000
 481.51,-0.40821,-0.0586382, 623.047, 608.83, 22.7368, 21.9651, 0.03487, 24.4461, 0.0000000E+000, 0.0000000E+000
 483.01,-0.40821,-0.0586382, 623.362, 609.303, 22.7581, 21.9796, 0.03487, 24.4461, 0.0000000E+000, 0.0000000E+000
 484.51,-0.40821,-0.0586382, 623.672, 609.755, 22.7795, 21.9944, 0.03487, 24.4461, 0.0000000E+000, 0.0000000E+000
 486.01,-0.40821,-0.0586382, 623.955, 610.189, 22.8011, 22.0092, 0.03487, 24.4461, 0.0000000E+000, 0.0000000E+000
 487.51,-0.40821,-0.0586382, 624.245, 610.612, 22.8229, 22.0241, 0.03487, 24.4461, 0.0000000E+000, 0.0000000E+000
 489.01,-0.40821,-0.0586382, 624.51, 611.02, 22.8447, 22.0392, 0.03487, 24.4461, 0.0000000E+000, 0.0000000E+000
 490.51,-0.40821,-0.0586382, 624.779, 611.412, 22.8667, 22.0544, 0.03487, 24.4461, 0.0000000E+000, 0.0000000E+000
 492.01,-0.40821,-0.0586382, 625.041, 611.794, 22.8889, 22.0697, 0.03487, 24.4461, 0.0000000E+000, 0.0000000E+000
 493.51,-0.40821,-0.0586382, 625.28, 612.163, 22.9112, 22.0851, 0.03487, 24.4461, 0.0000000E+000, 0.0000000E+000
 495.01,-0.40821,-0.0586382, 625.524, 612.519, 22.9336, 22.1006, 0.03487, 24.4461, 0.0000000E+000, 0.0000000E+000
 496.51,-0.40821,-0.0586382, 625.756, 612.87, 22.9562, 22.1163, 0.03487, 24.4461, 0.0000000E+000, 0.0000000E+000
 498.01,-0.40821,-0.0586382, 625.979, 613.202, 22.9789, 22.1321, 0.03487, 24.4461, 0.0000000E+000, 0.0000000E+000
 499.51,-0.40821,-0.0586382, 626.206, 613.533, 23.0018, 22.148, 0.03487, 24.4461, 0.0000000E+000, 0.0000000E+000
 500,-0.40821,-0.0586382, 626.276, 613.635, 23.0094, 22.1533, 0.03487, 24.4461, 0.0000000E+000, 0.0000000E+000