File: PMMA/Calibration_Results/NIST_FSRI/All_Props/UMD[NIST_FSRI]_Gasification_q50_R3_Mass.csv
s,kg/m2,,C,C,C,C,m,kg/m2,kg/m2,kg/m2,kg/m2/s
Time,"SD","MF","TW1","TSB1","TAL1","TB1","DX1","SD1","SD_11","SD_12","BR1"
 0.0000000E+000, 6.9619, 1.00006, 20.9, 20.9, 20.9, 20.9, 0.040961, 31.8162, 7.37011, 0.0000000E+000, 0.0000000E+000
 1.5, 6.9619, 1.00006, 76.7394, 20.9, 20.9, 20.9, 0.040961, 31.8162, 7.37011, 1.72016e-09, 1.78428e-10
 3.01, 6.9619, 1.00006, 114.404, 20.9, 20.9, 20.9, 0.040961, 31.8162, 7.37011, 6.63803e-07, 3.92936e-08
 4.51, 6.9619, 1.00006, 140.368, 20.9004, 20.9, 20.9, 0.040961, 31.8162, 7.37009, 2.39694e-05, 9.57791e-07
 6.01, 6.96189, 1.00006, 161.955, 20.9022, 20.9, 20.9, 0.040961, 31.8162, 7.36977, 0.000335957, 1.04197e-05
 7.51, 6.96183, 1.00005, 180.732, 20.9094, 20.9, 20.9, 0.040961, 31.8162, 7.36735, 0.00270677, 6.90881e-05
 9.01, 6.9615, 1, 197.809, 20.9301, 20.9, 20.9, 0.0409607, 31.8159, 7.35435, 0.0154415, 0.000330742
 10.51, 6.9603, 0.999827, 213.097, 20.9768, 20.9, 20.9, 0.0409599, 31.8149, 7.30412, 0.0646664, 0.00111042
 12.01, 6.95742, 0.999414, 226.924, 21.064, 20.9, 20.9, 0.0409578, 31.8123, 7.17451, 0.191684, 0.00230182
 13.51, 6.95392, 0.998911, 239.792, 21.2068, 20.9, 20.9, 0.0409548, 31.8087, 6.99511, 0.367498, 0.00208329
 15.01, 6.95204, 0.998641, 252.221, 21.4182, 20.9, 20.9, 0.040953, 31.8066, 6.88925, 0.471234, 0.00100041
 16.51, 6.9501, 0.998363, 263.959, 21.7084, 20.9, 20.9, 0.0409516, 31.8048, 6.79953, 0.559158, 0.00151075
 18, 6.94742, 0.997978, 274.884, 22.0823, 20.9, 20.9, 0.0409494, 31.8022, 6.67017, 0.685904, 0.00183525
 19.5, 6.94524, 0.997664, 285.176, 22.5464, 20.9, 20.9, 0.0409475, 31.7998, 6.55465, 0.799075, 0.00118148
 21, 6.94416, 0.99751, 295.002, 23.1031, 20.9, 20.9, 0.0409465, 31.7986, 6.49822, 0.854298, 0.000586891
 22.5, 6.9431, 0.997357, 304.35, 23.7521, 20.9, 20.9, 0.0409456, 31.7976, 6.45553, 0.895993, 0.000820101
 24, 6.94142, 0.997116, 313.191, 24.4899, 20.9, 20.9, 0.0409443, 31.7961, 6.38967, 0.960285, 0.00127059
 25.5, 6.9391, 0.996783, 321.508, 25.3142, 20.9, 20.9, 0.0409425, 31.7939, 6.29915, 1.04859, 0.00166132
 27, 6.93646, 0.996403, 329.291, 26.2213, 20.9, 20.9, 0.0409403, 31.7912, 6.2013, 1.14381, 0.00177088
 28.5, 6.93393, 0.99604, 336.521, 27.2065, 20.9, 20.9, 0.0409382, 31.7887, 6.12389, 1.21866, 0.00163469
 30, 6.93148, 0.995687, 343.184, 28.2646, 20.9, 20.9, 0.0409362, 31.7862, 6.07663, 1.26349, 0.00168513
 31.5, 6.9285, 0.995259, 349.267, 29.391, 20.9, 20.9, 0.0409339, 31.7834, 6.03995, 1.29731, 0.0021756
 33, 6.92449, 0.994684, 354.752, 30.5808, 20.9, 20.9, 0.0409307, 31.7796, 5.99423, 1.33922, 0.00292356
 34.5, 6.91927, 0.993933, 359.625, 31.829, 20.9, 20.9, 0.0409266, 31.7746, 5.9347, 1.39373, 0.00376166
 36, 6.91277, 0.993001, 363.895, 33.1303, 20.9, 20.9, 0.0409214, 31.7683, 5.86438, 1.45777, 0.00459883
 37.5, 6.90509, 0.991897, 367.565, 34.481, 20.9, 20.9, 0.0409152, 31.7608, 5.79056, 1.52409, 0.00536172
 39, 6.89637, 0.990645, 370.693, 35.8769, 20.9, 20.9, 0.0409081, 31.7522, 5.72225, 1.58385, 0.00602477
 40.5, 6.88672, 0.989258, 373.336, 37.3132, 20.9, 20.9, 0.0409002, 31.7427, 5.66559, 1.63101, 0.00663176
 42, 6.87615, 0.987739, 375.558, 38.7875, 20.9, 20.9, 0.0408916, 31.7323, 5.62017, 1.66601, 0.00725723
 43.51, 6.86458, 0.986078, 377.453, 40.2997, 20.9, 20.9, 0.0408822, 31.7209, 5.57993, 1.69482, 0.00793616
 45.01, 6.85198, 0.984267, 379.039, 41.8431, 20.9, 20.9, 0.0408719, 31.7084, 5.53855, 1.72371, 0.00863487
 46.51, 6.83835, 0.98231, 380.414, 43.4076, 20.9, 20.9, 0.0408607, 31.6949, 5.49288, 1.75593, 0.00930271
 48.01, 6.82378, 0.980217, 381.541, 44.9976, 20.9, 20.9, 0.0408488, 31.6805, 5.44239, 1.79199, 0.00991432
 49.51, 6.80835, 0.978001, 382.568, 46.6088, 20.9, 20.9, 0.0408362, 31.6652, 5.38826, 1.83082, 0.0104587
 51.01, 6.79219, 0.975678, 383.443, 48.2388, 20.9, 20.9, 0.0408229, 31.6491, 5.33236, 1.87066, 0.0109331
 52.51, 6.77537, 0.973263, 384.211, 49.886, 20.9, 20.9, 0.0408091, 31.6324, 5.27677, 1.90953, 0.0113423
 54.01, 6.758, 0.970768, 384.95, 51.5476, 20.9, 20.9, 0.0407948, 31.6151, 5.22337, 1.94565, 0.0116949
 55.51, 6.74014, 0.968202, 385.567, 53.2216, 20.9, 20.9, 0.0407801, 31.5974, 5.17338, 1.97785, 0.0120082
 57.01, 6.72184, 0.965573, 386.083, 54.9071, 20.9, 20.9, 0.040765, 31.5791, 5.12713, 2.00588, 0.0122963
 58.51, 6.70311, 0.962884, 386.648, 56.6019, 20.9, 20.9, 0.0407496, 31.5605, 5.08401, 2.03033, 0.0125739
 60.01, 6.68398, 0.960135, 387.072, 58.3038, 20.9, 20.9, 0.0407339, 31.5414, 5.04288, 2.0524, 0.0128485
 61.51, 6.66443, 0.957327, 387.553, 60.0116, 20.9, 20.9, 0.0407178, 31.5219, 5.0024, 2.0734, 0.0131216
 63.01, 6.64448, 0.954461, 387.894, 61.7239, 20.9, 20.9, 0.0407013, 31.502, 4.9615, 2.09441, 0.0133902
 64.51, 6.62414, 0.951539, 388.31, 63.4398, 20.9, 20.9, 0.0406846, 31.4817, 4.91951, 2.11611, 0.013648
 66.01, 6.60341, 0.948562, 388.703, 65.1581, 20.9, 20.9, 0.0406675, 31.4611, 4.87625, 2.13871, 0.013895
 67.51, 6.58234, 0.945534, 388.981, 66.8783, 20.9, 20.9, 0.0406501, 31.4401, 4.83184, 2.1621, 0.0141276
 69.01, 6.56093, 0.94246, 389.332, 68.5989, 20.9, 20.9, 0.0406325, 31.4187, 4.78662, 2.18597, 0.0143413
 70.51, 6.53922, 0.939341, 389.663, 70.3185, 20.9, 20.9, 0.0406146, 31.397, 4.74102, 2.20991, 0.0145385
 72.01, 6.51723, 0.936182, 389.887, 72.0369, 20.9, 20.9, 0.0405964, 31.3751, 4.69547, 2.2335, 0.0147225
 73.5, 6.49498, 0.932985, 390.183, 73.7418, 20.9, 20.9, 0.0405782, 31.353, 4.6507, 2.25621, 0.0148868
 75, 6.47248, 0.929754, 390.48, 75.4555, 20.9, 20.9, 0.0405596, 31.3306, 4.60642, 2.27804, 0.0150473
 76.5, 6.44976, 0.92649, 390.757, 77.1664, 20.9, 20.9, 0.0405409, 31.3079, 4.56312, 2.29866, 0.0151956
 78, 6.42682, 0.923195, 390.929, 78.8739, 20.9, 20.9, 0.040522, 31.285, 4.52085, 2.31802, 0.0153414
 79.5, 6.40367, 0.91987, 391.181, 80.577, 20.9, 20.9, 0.0405029, 31.2619, 4.47951, 2.33624, 0.0154737
 81, 6.38032, 0.916515, 391.445, 82.2753, 20.9, 20.9, 0.0404836, 31.2386, 4.4389, 2.35354, 0.0156159
 82.5, 6.35676, 0.913131, 391.687, 83.9691, 20.9, 20.9, 0.0404641, 31.215, 4.39872, 2.37019, 0.0157493
 84, 6.333, 0.909718, 391.83, 85.6575, 20.9, 20.9, 0.0404445, 31.1913, 4.3587, 2.38649, 0.0158845
 85.5, 6.30904, 0.906276, 392.063, 87.3403, 20.9, 20.9, 0.0404248, 31.1674, 4.31857, 2.40269, 0.0160144
 87, 6.28489, 0.902807, 392.288, 89.0174, 20.9, 20.9, 0.0404048, 31.1433, 4.27815, 2.41899, 0.0161426
 88.5, 6.26055, 0.89931, 392.516, 90.6885, 20.9, 20.9, 0.0403847, 31.1189, 4.23733, 2.4355, 0.0162726
 90, 6.23601, 0.895785, 392.741, 92.354, 20.9, 20.9, 0.0403645, 31.0944, 4.19608, 2.45224, 0.0164007
 91.5, 6.21129, 0.892234, 392.946, 94.0137, 20.9001, 20.9, 0.0403441, 31.0698, 4.15445, 2.46918, 0.0165148
 93, 6.1864, 0.888659, 393.06, 95.6665, 20.9001, 20.9, 0.0403235, 31.0449, 4.11253, 2.48624, 0.0166336
 94.5, 6.16134, 0.885059, 393.263, 97.3118, 20.9001, 20.9, 0.0403028, 31.0199, 4.07044, 2.5033, 0.01674
 96, 6.13613, 0.881438, 393.458, 98.951, 20.9001, 20.9, 0.040282, 30.9947, 4.0283, 2.52025, 0.0168398
 97.5, 6.11076, 0.877794, 393.673, 100.585, 20.9001, 20.9, 0.0402611, 30.9693, 3.98624, 2.53697, 0.0169485
 99, 6.08524, 0.874127, 393.87, 102.213, 20.9001, 20.9, 0.04024, 30.9438, 3.94434, 2.55337, 0.017046
 100.5, 6.05957, 0.87044, 394.066, 103.832, 20.9002, 20.9, 0.0402188, 30.9182, 3.90266, 2.56941, 0.0171425
 102, 6.03377, 0.866734, 394.158, 105.444, 20.9002, 20.9, 0.0401975, 30.8924, 3.8612, 2.58508, 0.0172329
 103.5, 6.00783, 0.863007, 394.355, 107.052, 20.9002, 20.9, 0.0401761, 30.8665, 3.81995, 2.60042, 0.0173245
 105, 5.98175, 0.859262, 394.538, 108.653, 20.9003, 20.9, 0.0401546, 30.8404, 3.77883, 2.61548, 0.0174117
 106.5, 5.95555, 0.855498, 394.711, 110.246, 20.9003, 20.9, 0.0401329, 30.8143, 3.73777, 2.63036, 0.0174925
 108, 5.92921, 0.851714, 394.918, 111.834, 20.9003, 20.9, 0.0401112, 30.7879, 3.69668, 2.64514, 0.0175941
 109.5, 5.90273, 0.84791, 395.103, 113.414, 20.9004, 20.9, 0.0400893, 30.7615, 3.65546, 2.6599, 0.0176848
 111, 5.87611, 0.844087, 395.278, 114.99, 20.9005, 20.9001, 0.0400673, 30.7349, 3.61403, 2.67474, 0.0177691
 112.5, 5.84937, 0.840246, 395.397, 116.559, 20.9005, 20.9001, 0.0400452, 30.7082, 3.57233, 2.68971, 0.0178569
 114, 5.8225, 0.836385, 395.538, 118.115, 20.9006, 20.9001, 0.0400231, 30.6813, 3.53035, 2.70484, 0.0179439
 115.5, 5.7955, 0.832507, 395.713, 119.654, 20.9007, 20.9001, 0.0400008, 30.6543, 3.48808, 2.72014, 0.0180246
 117, 5.76838, 0.828612, 395.887, 121.176, 20.9008, 20.9001, 0.0399784, 30.6272, 3.44553, 2.73559, 0.0181055
 118.5, 5.74115, 0.824699, 396.057, 122.676, 20.9009, 20.9001, 0.0399559, 30.6, 3.40275, 2.75116, 0.0181828
 120, 5.71378, 0.820768, 396.253, 124.162, 20.901, 20.9001, 0.0399333, 30.5727, 3.35977, 2.76679, 0.0182748
 121.5, 5.68628, 0.816819, 396.429, 125.628, 20.9011, 20.9002, 0.0399106, 30.5452, 3.31663, 2.78245, 0.0183547
 123, 5.65868, 0.812853, 396.595, 127.078, 20.9013, 20.9002, 0.0398878, 30.5176, 3.27337, 2.79813, 0.0184271
 124.5, 5.63096, 0.808872, 396.72, 128.521, 20.9014, 20.9002, 0.0398649, 30.4899, 3.23, 2.8138, 0.0185043
 126, 5.60313, 0.804873, 396.855, 129.962, 20.9016, 20.9002, 0.0398419, 30.4621, 3.1865, 2.82948, 0.0185803
 127.5, 5.57518, 0.800859, 397.019, 131.4, 20.9018, 20.9003, 0.0398188, 30.4342, 3.14288, 2.84518, 0.0186507
 129, 5.54714, 0.796831, 397.186, 132.839, 20.902, 20.9003, 0.0397956, 30.4061, 3.09908, 2.86095, 0.0187224
 130.5, 5.51898, 0.792786, 397.351, 134.276, 20.9022, 20.9003, 0.0397724, 30.378, 3.05506, 2.87683, 0.0187922
 132, 5.49071, 0.788725, 397.535, 135.713, 20.9024, 20.9004, 0.039749, 30.3498, 3.01078, 2.89286, 0.0188756
 133.5, 5.46232, 0.784647, 397.715, 137.147, 20.9027, 20.9004, 0.0397256, 30.3214, 2.96619, 2.90908, 0.0189556
 135, 5.43381, 0.780551, 397.885, 138.582, 20.9029, 20.9005, 0.039702, 30.2929, 2.92124, 2.92553, 0.0190305
 136.5, 5.40519, 0.776441, 398.045, 140.015, 20.9032, 20.9005, 0.0396784, 30.2643, 2.87592, 2.94225, 0.0190992
 138, 5.37647, 0.772315, 398.126, 141.448, 20.9035, 20.9006, 0.0396547, 30.2356, 2.83022, 2.95926, 0.0191754
 139.5, 5.34763, 0.768172, 398.3, 142.879, 20.9039, 20.9006, 0.0396309, 30.2068, 2.78412, 2.97653, 0.0192468
 141, 5.31869, 0.764015, 398.46, 144.309, 20.9042, 20.9007, 0.039607, 30.1778, 2.73764, 2.99409, 0.0193155
 142.5, 5.28965, 0.759844, 398.62, 145.739, 20.9046, 20.9008, 0.039583, 30.1488, 2.69077, 3.01194, 0.0193818
 144, 5.26051, 0.755657, 398.788, 147.168, 20.905, 20.9009, 0.0395589, 30.1197, 2.64353, 3.03005, 0.0194522
 145.5, 5.23124, 0.751454, 398.975, 148.596, 20.9055, 20.901, 0.0395347, 30.0905, 2.5959, 3.04844, 0.0195352
 147, 5.20187, 0.747234, 399.144, 150.023, 20.9059, 20.9011, 0.0395105, 30.0611, 2.54788, 3.0671, 0.0196078
 148.5, 5.17238, 0.742998, 399.318, 151.449, 20.9064, 20.9012, 0.0394861, 30.0316, 2.49944, 3.08608, 0.0196831
 150, 5.14279, 0.738747, 399.48, 152.875, 20.907, 20.9013, 0.0394617, 30.0021, 2.45054, 3.10539, 0.0197507
 151.5, 5.11309, 0.734481, 399.546, 154.3, 20.9075, 20.9014, 0.0394372, 29.9724, 2.40116, 3.12509, 0.019821
 153, 5.08328, 0.730199, 399.727, 155.725, 20.9081, 20.9015, 0.0394125, 29.9426, 2.35127, 3.1452, 0.0198956
 154.5, 5.05337, 0.725903, 399.889, 157.148, 20.9088, 20.9017, 0.0393878, 29.9127, 2.30082, 3.16575, 0.0199638
 156, 5.02336, 0.721591, 400.047, 158.572, 20.9094, 20.9018, 0.039363, 29.8827, 2.2498, 3.18677, 0.0200289
 157.5, 4.99324, 0.717265, 400.214, 159.995, 20.9101, 20.902, 0.0393382, 29.8526, 2.19819, 3.20829, 0.0201016
 159, 4.96301, 0.712922, 400.406, 161.417, 20.9109, 20.9022, 0.0393132, 29.8224, 2.14598, 3.23029, 0.0201842
 160.51, 4.93265, 0.708562, 400.579, 162.849, 20.9117, 20.9024, 0.039288, 29.7918, 2.09279, 3.25293, 0.0202622
 162.01, 4.90219, 0.704186, 400.747, 164.271, 20.9125, 20.9026, 0.0392628, 29.7614, 2.03933, 3.27595, 0.0203336
 163.51, 4.87161, 0.699794, 400.916, 165.693, 20.9134, 20.9028, 0.0392375, 29.7308, 1.98523, 3.29949, 0.0204064
 165.01, 4.84094, 0.695387, 401.018, 167.114, 20.9143, 20.903, 0.0392122, 29.7002, 1.93048, 3.32358, 0.0204746
 166.51, 4.81015, 0.690965, 401.164, 168.537, 20.9152, 20.9033, 0.0391868, 29.6694, 1.87505, 3.34824, 0.0205472
 168.01, 4.77926, 0.686527, 401.338, 169.958, 20.9162, 20.9035, 0.0391613, 29.6385, 1.81894, 3.37347, 0.0206204
 169.51, 4.74826, 0.682074, 401.5, 171.38, 20.9173, 20.9038, 0.0391356, 29.6076, 1.76212, 3.39931, 0.0206894
 171.01, 4.71715, 0.677606, 401.66, 172.802, 20.9184, 20.9041, 0.03911, 29.5765, 1.70459, 3.42576, 0.0207567
 172.51, 4.68594, 0.673122, 401.851, 174.223, 20.9195, 20.9044, 0.0390842, 29.5453, 1.64633, 3.45282, 0.0208408
 174.01, 4.6546, 0.66862, 402.034, 175.646, 20.9207, 20.9047, 0.0390583, 29.514, 1.58735, 3.48048, 0.0209217
 175.51, 4.62314, 0.664101, 402.203, 177.069, 20.922, 20.9051, 0.0390323, 29.4825, 1.52766, 3.50873, 0.020995
 177.01, 4.59158, 0.659567, 402.373, 178.493, 20.9233, 20.9054, 0.0390062, 29.451, 1.46729, 3.53756, 0.0210683
 178.51, 4.5599, 0.655017, 402.543, 179.917, 20.9247, 20.9058, 0.0389801, 29.4193, 1.40624, 3.56694, 0.0211378
 180.01, 4.52812, 0.650452, 402.627, 181.341, 20.9261, 20.9062, 0.0389538, 29.3875, 1.34457, 3.59686, 0.0212115
 181.51, 4.49624, 0.645872, 402.795, 182.768, 20.9276, 20.9067, 0.0389275, 29.3557, 1.28231, 3.62725, 0.0212777
 183.01, 4.46425, 0.641277, 402.971, 184.195, 20.9291, 20.9071, 0.0389011, 29.3237, 1.21951, 3.65807, 0.02135
 184.51, 4.43216, 0.636668, 403.136, 185.624, 20.9307, 20.9076, 0.0388746, 29.2916, 1.15626, 3.68925, 0.0214141
 186.01, 4.39998, 0.632044, 403.302, 187.054, 20.9324, 20.9081, 0.038848, 29.2595, 1.09264, 3.72071, 0.0214794
 187.51, 4.36767, 0.627404, 403.507, 188.486, 20.9341, 20.9086, 0.0388213, 29.2272, 1.02875, 3.75231, 0.0215633
 189.01, 4.33526, 0.622747, 403.684, 189.921, 20.9359, 20.9092, 0.0387945, 29.1948, 0.96472, 3.78394, 0.0216323
 190.51, 4.30275, 0.618077, 403.852, 191.357, 20.9378, 20.9097, 0.0387677, 29.1623, 0.900713, 3.81545, 0.0216931
 192.01, 4.27015, 0.613394, 404.028, 192.798, 20.9397, 20.9103, 0.0387407, 29.1297, 0.836902, 3.84668, 0.0217559
 193.51, 4.23745, 0.608698, 404.127, 194.24, 20.9417, 20.911, 0.0387137, 29.097, 0.773488, 3.87741, 0.0218123
 195.01, 4.20468, 0.60399, 404.301, 195.688, 20.9438, 20.9116, 0.0386866, 29.0643, 0.710698, 3.90744, 0.021868
 196.51, 4.17183, 0.599272, 404.468, 197.139, 20.9459, 20.9123, 0.0386595, 29.0314, 0.648791, 3.93651, 0.021913
 198.01, 4.13891, 0.594543, 404.647, 198.596, 20.9481, 20.913, 0.0386323, 28.9985, 0.588048, 3.96434, 0.0219623
 199.51, 4.10593, 0.589805, 404.812, 200.057, 20.9504, 20.9138, 0.0386051, 28.9655, 0.528779, 3.99064, 0.0220001
 201.01, 4.07288, 0.585058, 405.004, 201.525, 20.9528, 20.9146, 0.0385778, 28.9325, 0.471313, 4.01507, 0.0220505
 202.51, 4.03976, 0.5803, 405.197, 203, 20.9552, 20.9154, 0.0385504, 28.8994, 0.416, 4.03727, 0.0220941
 204.01, 4.00659, 0.575535, 405.372, 204.481, 20.9577, 20.9162, 0.038523, 28.8662, 0.363197, 4.05691, 0.0221264
 205.51, 3.97337, 0.570764, 405.54, 205.97, 20.9603, 20.9171, 0.0384955, 28.833, 0.313264, 4.07363, 0.0221494
 207.01, 3.94012, 0.565988, 405.695, 207.468, 20.963, 20.918, 0.0384681, 28.7998, 0.26655, 4.08711, 0.0221733
 208.51, 3.90685, 0.561207, 405.827, 208.974, 20.9657, 20.919, 0.0384406, 28.7665, 0.223381, 4.097, 0.0221897
 210.01, 3.87355, 0.556424, 405.999, 210.489, 20.9685, 20.92, 0.038413, 28.7332, 0.184043, 4.10304, 0.0222044
 211.51, 3.84023, 0.551639, 406.167, 212.013, 20.9715, 20.921, 0.0383855, 28.6999, 0.148763, 4.10501, 0.0222112
 213.01, 3.8069, 0.546851, 406.347, 213.547, 20.9745, 20.9221, 0.038358, 28.6666, 0.117692, 4.10275, 0.022224
 214.51, 3.77356, 0.542061, 406.521, 215.088, 20.9775, 20.9232, 0.0383304, 28.6332, 0.0908903, 4.09621, 0.022235
 216.01, 3.74017, 0.537266, 406.718, 216.639, 20.9807, 20.9244, 0.0383028, 28.5998, 0.068311, 4.08542, 0.0222624
 217.51, 3.70676, 0.532465, 406.906, 218.196, 20.984, 20.9255, 0.0382752, 28.5664, 0.0497939, 4.07052, 0.0222852
 219.01, 3.67331, 0.527661, 407.08, 219.761, 20.9873, 20.9268, 0.0382476, 28.533, 0.0350664, 4.05181, 0.0223068
 220.51, 3.63982, 0.52285, 407.25, 221.331, 20.9907, 20.9281, 0.0382199, 28.4995, 0.0237538, 4.02964, 0.0223335
 222.01, 3.60629, 0.518033, 407.357, 222.907, 20.9943, 20.9294, 0.0381922, 28.466, 0.0154014, 4.00447, 0.0223717
 223.51, 3.57269, 0.513207, 407.537, 224.486, 20.9979, 20.9308, 0.0381644, 28.4324, 0.00950498, 3.97677, 0.0224117
 225.01, 3.53902, 0.508371, 407.709, 226.069, 21.0016, 20.9322, 0.0381366, 28.3987, 0.00554852, 3.94708, 0.0224609
 226.51, 3.50528, 0.503524, 407.879, 227.655, 21.0054, 20.9337, 0.0381088, 28.365, 0.00304205, 3.91585, 0.0225134
 228.01, 3.47145, 0.498663, 408.063, 229.242, 21.0093, 20.9352, 0.0380808, 28.3312, 0.00155397, 3.88352, 0.0225779
 229.51, 3.4375, 0.493788, 408.261, 230.834, 21.0133, 20.9367, 0.0380528, 28.2973, 0.000732952, 3.85042, 0.0226581
 231.01, 3.40344, 0.488894, 408.448, 232.427, 21.0174, 20.9383, 0.0380246, 28.2632, 0.000315951, 3.81679, 0.0227372
 232.51, 3.36925, 0.483984, 408.637, 234.024, 21.0215, 20.94, 0.0379964, 28.2291, 0.000123032, 3.78282, 0.0228167
 234.01, 3.33495, 0.479057, 408.814, 235.625, 21.0258, 20.9417, 0.0379681, 28.1948, 4.27124e-05, 3.74861, 0.0228906
 235.51, 3.30054, 0.474113, 408.959, 237.229, 21.0302, 20.9435, 0.0379396, 28.1604, 1.30227e-05, 3.71425, 0.0229697
 237.01, 3.266, 0.469152, 409.115, 238.838, 21.0347, 20.9453, 0.0379111, 28.1259, 3.42829e-06, 3.67974, 0.0230502
 238.51, 3.23135, 0.464174, 409.297, 240.451, 21.0393, 20.9472, 0.0378825, 28.0912, 7.64318e-07, 3.64511, 0.0231287
 240.01, 3.19658, 0.459179, 409.474, 242.07, 21.044, 20.9491, 0.0378538, 28.0565, 1.41176e-07, 3.61036, 0.0232096
 241.51, 3.16168, 0.454167, 409.652, 243.694, 21.0488, 20.9511, 0.0378249, 28.0216, 2.10761e-08, 3.57548, 0.0232902
 243.01, 3.12666, 0.449135, 409.861, 245.323, 21.0537, 20.9532, 0.037796, 27.9866, 2.47274e-09, 3.54048, 0.0233827
 244.51, 3.09149, 0.444083, 410.059, 246.959, 21.0587, 20.9553, 0.037767, 27.9515, 2.20915e-10, 3.50533, 0.0234793
 246.01, 3.05618, 0.439012, 410.243, 248.601, 21.0638, 20.9575, 0.0377378, 27.9162, 1.45052e-11, 3.47005, 0.0235655
 247.51, 3.02074, 0.433921, 410.436, 250.248, 21.069, 20.9597, 0.0377085, 27.8808, 6.7243e-13, 3.43463, 0.0236547
 249.01, 2.98518, 0.428813, 410.616, 251.903, 21.0743, 20.962, 0.0376792, 27.8452, 2.10396e-14, 3.39909, 0.0237384
 250.51, 2.94948, 0.423684, 410.74, 253.564, 21.0797, 20.9643, 0.0376497, 27.8095, 4.22915e-16, 3.36341, 0.0238308
 252.01, 2.91364, 0.418537, 410.932, 255.232, 21.0853, 20.9667, 0.0376201, 27.7737, 5.94586e-18, 3.3276, 0.0239183
 253.51, 2.87768, 0.41337, 411.119, 256.909, 21.0909, 20.9692, 0.0375904, 27.7378, 9.34386e-19, 3.29165, 0.0240069
 255.01, 2.84157, 0.408184, 411.301, 258.592, 21.0967, 20.9718, 0.0375606, 27.7017, 9.34194e-19, 3.25557, 0.0240994
 256.51, 2.80533, 0.402978, 411.499, 260.283, 21.1025, 20.9744, 0.0375306, 27.6655, 9.34194e-19, 3.21935, 0.0241961
 258.01, 2.76893, 0.397749, 411.715, 261.982, 21.1085, 20.977, 0.0375006, 27.6291, 9.34194e-19, 3.18297, 0.024301
 259.51, 2.73237, 0.392498, 411.909, 263.689, 21.1146, 20.9798, 0.0374704, 27.5926, 9.34194e-19, 3.14644, 0.0244046
 261.01, 2.69567, 0.387225, 412.097, 265.404, 21.1208, 20.9826, 0.0374401, 27.5559, 9.34194e-19, 3.10976, 0.0245012
 262.51, 2.65882, 0.381932, 412.294, 267.128, 21.1272, 20.9855, 0.0374096, 27.5191, 9.34194e-19, 3.07294, 0.0245976
 264.01, 2.62183, 0.376618, 412.43, 268.861, 21.1336, 20.9884, 0.0373791, 27.4821, 9.34194e-19, 3.03596, 0.0246992
 265.51, 2.58468, 0.371281, 412.621, 270.602, 21.1402, 20.9915, 0.0373484, 27.445, 9.34194e-19, 2.99884, 0.0247996
 267.01, 2.54737, 0.365923, 412.822, 272.348, 21.1468, 20.9946, 0.0373176, 27.4077, 9.34194e-19, 2.96156, 0.024902
 268.51, 2.50992, 0.360543, 413.01, 274.103, 21.1536, 20.9977, 0.0372866, 27.3703, 9.34194e-19, 2.92413, 0.0250018
 270.01, 2.47231, 0.355141, 413.204, 275.867, 21.1606, 21.001, 0.0372556, 27.3327, 9.34194e-19, 2.88655, 0.0251101
 271.51, 2.43452, 0.349712, 413.434, 277.64, 21.1676, 21.0043, 0.0372244, 27.2949, 9.34194e-19, 2.84879, 0.0252322
 273.01, 2.39656, 0.34426, 413.633, 279.422, 21.1747, 21.0077, 0.037193, 27.257, 8.99787e-19, 2.81086, 0.0253438
 274.51, 2.35843, 0.338782, 413.827, 281.215, 21.182, 21.0111, 0.0371615, 27.2189, 8.20151e-19, 2.77275, 0.0254564
 276.01, 2.32013, 0.333281, 414.032, 283.018, 21.1894, 21.0147, 0.0371299, 27.1806, 7.64199e-19, 2.73448, 0.0255697
 277.51, 2.28167, 0.327755, 414.173, 284.832, 21.197, 21.0183, 0.0370981, 27.1422, 7.64199e-19, 2.69604, 0.0256802
 279.01, 2.24303, 0.322205, 414.374, 286.656, 21.2046, 21.022, 0.0370662, 27.1036, 7.64199e-19, 2.65743, 0.0258003
 280.51, 2.20421, 0.316629, 414.573, 288.491, 21.2124, 21.0258, 0.0370342, 27.0648, 7.10628e-19, 2.61865, 0.0259164
 282.01, 2.16522, 0.311028, 414.773, 290.336, 21.2203, 21.0296, 0.037002, 27.0258, 7.10628e-19, 2.57968, 0.0260318
 283.51, 2.12605, 0.305402, 414.974, 292.191, 21.2283, 21.0336, 0.0369696, 26.9867, 7.10628e-19, 2.54054, 0.0261574
 285.01, 2.08668, 0.299746, 415.202, 294.058, 21.2364, 21.0376, 0.0369371, 26.9473, 7.10628e-19, 2.5012, 0.0262939
 286.51, 2.04711, 0.294062, 415.414, 295.937, 21.2447, 21.0417, 0.0369044, 26.9078, 7.10628e-19, 2.46166, 0.0264215
 288.01, 2.00735, 0.28835, 415.614, 297.827, 21.2531, 21.0459, 0.0368716, 26.8681, 7.10628e-19, 2.42193, 0.0265515
 289.51, 1.96739, 0.28261, 415.818, 299.729, 21.2617, 21.0502, 0.0368386, 26.8281, 7.10628e-19, 2.382, 0.0266821
 291.01, 1.92723, 0.276842, 415.985, 301.645, 21.2703, 21.0545, 0.0368054, 26.788, 7.10628e-19, 2.34188, 0.0268139
 292.51, 1.88688, 0.271045, 416.189, 303.574, 21.2791, 21.059, 0.0367721, 26.7477, 7.10628e-19, 2.30156, 0.0269486
 294.01, 1.84632, 0.265219, 416.392, 305.517, 21.288, 21.0635, 0.0367386, 26.7072, 7.10628e-19, 2.26103, 0.027085
 295.51, 1.80556, 0.259363, 416.604, 307.474, 21.2971, 21.0681, 0.036705, 26.6664, 7.10628e-19, 2.2203, 0.0272216
 297.01, 1.76458, 0.253478, 416.812, 309.444, 21.3063, 21.0729, 0.0366711, 26.6255, 7.10628e-19, 2.17936, 0.0273625
 298.51, 1.72338, 0.247559, 417.045, 311.428, 21.3156, 21.0777, 0.0366371, 26.5843, 7.10628e-19, 2.1382, 0.0275211
 300.01, 1.68195, 0.241607, 417.267, 313.428, 21.3251, 21.0825, 0.0366029, 26.5429, 5.88427e-19, 2.0968, 0.0276689
 301.51, 1.6403, 0.235625, 417.469, 315.444, 21.3347, 21.0875, 0.0365685, 26.5013, 5.81571e-19, 2.05519, 0.0278142
 303.01, 1.59842, 0.229609, 417.683, 317.476, 21.3444, 21.0926, 0.0365339, 26.4595, 4.9862e-19, 2.01335, 0.0279683
 304.51, 1.55632, 0.223561, 417.863, 319.526, 21.3543, 21.0978, 0.0364992, 26.4174, 4.9862e-19, 1.97128, 0.0281216
 306.01, 1.51399, 0.21748, 418.071, 321.595, 21.3643, 21.103, 0.0364642, 26.3751, 4.9862e-19, 1.92898, 0.0282708
 307.51, 1.47142, 0.211365, 418.287, 323.683, 21.3744, 21.1084, 0.0364291, 26.3326, 4.9862e-19, 1.88645, 0.028432
 309.01, 1.42861, 0.205216, 418.5, 325.791, 21.3847, 21.1138, 0.0363937, 26.2898, 4.9862e-19, 1.84369, 0.0285902
 310.51, 1.38557, 0.199033, 418.725, 327.921, 21.3951, 21.1194, 0.0363582, 26.2468, 4.61306e-19, 1.80068, 0.0287483
 312.01, 1.34227, 0.192813, 418.963, 330.074, 21.4057, 21.125, 0.0363224, 26.2035, 4.61306e-19, 1.75742, 0.0289267
 313.51, 1.29871, 0.186556, 419.185, 332.251, 21.4164, 21.1308, 0.0362865, 26.16, 4.61306e-19, 1.71391, 0.0290941
 315.01, 1.2549, 0.180264, 419.407, 334.455, 21.4272, 21.1366, 0.0362503, 26.1163, 4.26497e-19, 1.67014, 0.0292583
 316.51, 1.21085, 0.173935, 419.624, 336.686, 21.4382, 21.1425, 0.0362139, 26.0722, 4.26497e-19, 1.62613, 0.0294278
 318.01, 1.16654, 0.16757, 419.814, 338.948, 21.4493, 21.1486, 0.0361773, 26.028, 4.25212e-19, 1.58185, 0.0295982
 319.51, 1.12197, 0.161168, 420.037, 341.245, 21.4606, 21.1547, 0.0361405, 25.9834, 3.94375e-19, 1.53733, 0.0297676
 321.01, 1.07715, 0.15473, 420.258, 343.577, 21.472, 21.161, 0.0361035, 25.9387, 3.3262e-19, 1.49255, 0.0299347
 322.51, 1.03207, 0.148254, 420.492, 345.949, 21.4836, 21.1673, 0.0360663, 25.8936, 2.73084e-19, 1.44751, 0.0301146
 324.01, 0.986723, 0.14174, 420.738, 348.365, 21.4953, 21.1738, 0.0360288, 25.8483, 2.50131e-19, 1.40221, 0.0302921
 325.51, 0.941105, 0.135187, 420.979, 350.827, 21.5071, 21.1803, 0.0359912, 25.8028, 2.44393e-19, 1.35663, 0.0304697
 327.01, 0.895221, 0.128596, 421.216, 353.341, 21.5191, 21.187, 0.0359533, 25.7569, 2.44393e-19, 1.31079, 0.030651
 328.51, 0.849069, 0.121966, 421.456, 355.912, 21.5313, 21.1937, 0.0359152, 25.7108, 2.44393e-19, 1.26468, 0.0308259
 330.01, 0.802655, 0.115299, 421.667, 358.546, 21.5435, 21.2006, 0.0358769, 25.6644, 2.44393e-19, 1.21831, 0.0310008
 331.51, 0.755983, 0.108595, 421.909, 361.248, 21.556, 21.2076, 0.0358383, 25.6178, 2.44393e-19, 1.17168, 0.0311721
 333.01, 0.709042, 0.101852, 422.17, 364.028, 21.5686, 21.2146, 0.0357996, 25.5709, 2.44393e-19, 1.12478, 0.031353
 334.51, 0.661841, 0.0950717, 422.425, 366.891, 21.5813, 21.2218, 0.0357606, 25.5237, 2.44393e-19, 1.07762, 0.0315255
 336.01, 0.61438, 0.0882539, 422.705, 369.847, 21.5942, 21.2291, 0.0357214, 25.4763, 2.44393e-19, 1.0302, 0.0316997
 337.51, 0.566655, 0.0813984, 422.988, 372.905, 21.6073, 21.2365, 0.035682, 25.4286, 2.03718e-19, 0.982518, 0.0318765
 339.01, 0.51867, 0.0745055, 423.277, 376.075, 21.6205, 21.244, 0.0356424, 25.3807, 2.03718e-19, 0.934573, 0.0320442
 340.51, 0.47044, 0.0675774, 423.546, 379.371, 21.6338, 21.2517, 0.0356025, 25.3325, 1.85393e-19, 0.886382, 0.0322072
 342.01, 0.421977, 0.0606158, 423.855, 382.802, 21.6474, 21.2594, 0.0355625, 25.2841, 1.85393e-19, 0.837955, 0.0323583
 343.51, 0.373285, 0.0536213, 424.202, 386.383, 21.661, 21.2673, 0.0355223, 25.2354, 1.59299e-19, 0.7893, 0.0325117
 345.01, 0.324377, 0.0465959, 424.576, 390.13, 21.6749, 21.2752, 0.0354819, 25.1865, 1.52844e-19, 0.740425, 0.0326504
 346.51, 0.275279, 0.039543, 424.969, 394.057, 21.6888, 21.2833, 0.0354414, 25.1375, 1.52844e-19, 0.691355, 0.0327699
 348.01, 0.226025, 0.0324678, 425.401, 398.18, 21.703, 21.2915, 0.0354007, 25.0882, 1.38914e-19, 0.642124, 0.0328676
 349.51, 0.176652, 0.0253756, 425.903, 402.516, 21.7173, 21.2998, 0.0353599, 25.0389, 1.38914e-19, 0.592767, 0.0329341
 351.01, 0.127223, 0.0182752, 426.466, 407.081, 21.7318, 21.3083, 0.035319, 24.9895, 1.15576e-19, 0.543342, 0.0329576
 352.51, 0.0778153, 0.011178, 427.143, 411.891, 21.7464, 21.3168, 0.0352782, 24.94, 1.04912e-19, 0.493925, 0.0329203
 354.01, 0.0285404, 0.00409975, 427.941, 416.956, 21.7612, 21.3255, 0.0352375, 24.8907, 9.51977e-20, 0.444621, 0.0328032
 355.51,-0.0204512,-0.00293775, 428.928, 422.284, 21.7761, 21.3343, 0.0351969, 24.8417, 7.78318e-20, 0.395573, 0.0325749
 357.01,-0.0689544,-0.00990511, 430.156, 427.877, 21.7912, 21.3432, 0.0351568, 24.7931, 6.26894e-20, 0.346975, 0.0321944
 358.51,-0.116663,-0.0167583, 431.657, 433.722, 21.8065, 21.3522, 0.0351172, 24.7452, 6.26894e-20, 0.299117, 0.0315853
 360.01,-0.163211,-0.0234448, 433.677, 439.719, 21.8219, 21.3613, 0.0350786, 24.6985, 5.5815e-20, 0.252358, 0.0307222
 361.51,-0.208149,-0.0299001, 436.428, 445.801, 21.8375, 21.3706, 0.0350412, 24.6533, 4.19775e-20, 0.207131, 0.0295369
 363.01,-0.250935,-0.0360461, 440.21, 451.916, 21.8533, 21.38, 0.0350055, 24.6101, 4.14068e-20, 0.163963, 0.0279684
 364.51,-0.290942,-0.041793, 445.467, 458.286, 21.8693, 21.3895, 0.034972, 24.5696, 1.39239e-20, 0.123473, 0.0259789
 366.01,-0.327509,-0.0470457, 452.839, 465.377, 21.8854, 21.3991, 0.0349413, 24.5324, 4.25e-21, 0.0863056, 0.0235114
 367.51,-0.35971,-0.0516713, 463.254, 473.766, 21.9017, 21.4089, 0.0349141, 24.4995, 2.18529e-21, 0.0533354, 0.0203522
 369.01,-0.386178,-0.0554734, 479.03, 485.745, 21.9181, 21.4188, 0.0348913, 24.472, 2.18529e-21, 0.0258318, 0.0161299
 370.51,-0.40393,-0.0580234, 506.673, 507.859, 21.9347, 21.4288, 0.0348753, 24.4525, 4.49611e-22, 0.00635642, 0.00918895
 372.01,-0.40821,-0.0586382, 540.804, 562.018, 21.9515, 21.4389, 0.03487, 24.4461, 0.0000000E+000, 0.0000000E+000, 0.0000000E+000
 373.51,-0.40821,-0.0586382, 550.869, 572.139, 21.9685, 21.4492, 0.03487, 24.4461, 0.0000000E+000, 0.0000000E+000, 0.0000000E+000
 375.01,-0.40821,-0.0586382, 557.046, 578.352, 21.9857, 21.4596, 0.03487, 24.4461, 0.0000000E+000, 0.0000000E+000, 0.0000000E+000
 376.51,-0.40821,-0.0586382, 561.522, 582.852, 22.003, 21.4701, 0.03487, 24.4461, 0.0000000E+000, 0.0000000E+000, 0.0000000E+000
 378.01,-0.40821,-0.0586382, 565.032, 586.383, 22.0205, 21.4808, 0.03487, 24.4461, 0.0000000E+000, 0.0000000E+000, 0.0000000E+000
 379.51,-0.40821,-0.0586382, 567.917, 589.281, 22.0382, 21.4916, 0.03487, 24.4461, 0.0000000E+000, 0.0000000E+000, 0.0000000E+000
 381.01,-0.40821,-0.0586382, 570.354, 591.734, 22.056, 21.5025, 0.03487, 24.4461, 0.0000000E+000, 0.0000000E+000, 0.0000000E+000
 382.51,-0.40821,-0.0586382, 572.464, 593.855, 22.0741, 21.5136, 0.03487, 24.4461, 0.0000000E+000, 0.0000000E+000, 0.0000000E+000
 384.01,-0.40821,-0.0586382, 574.315, 595.719, 22.0923, 21.5248, 0.03487, 24.4461, 0.0000000E+000, 0.0000000E+000, 0.0000000E+000
 385.51,-0.40821,-0.0586382, 575.968, 597.378, 22.1107, 21.5361, 0.03487, 24.4461, 0.0000000E+000, 0.0000000E+000, 0.0000000E+000
 387.01,-0.40821,-0.0586382, 577.451, 598.869, 22.1293, 21.5476, 0.03487, 24.4461, 0.0000000E+000, 0.0000000E+000, 0.0000000E+000
 388.51,-0.40821,-0.0586382, 578.796, 600.217, 22.1481, 21.5592, 0.03487, 24.4461, 0.0000000E+000, 0.0000000E+000, 0.0000000E+000
 390.01,-0.40821,-0.0586382, 580.016, 601.45, 22.167, 21.5709, 0.03487, 24.4461, 0.0000000E+000, 0.0000000E+000, 0.0000000E+000
 391.51,-0.40821,-0.0586382, 581.14, 602.585, 22.1862, 21.5828, 0.03487, 24.4461, 0.0000000E+000, 0.0000000E+000, 0.0000000E+000
 393.01,-0.40821,-0.0586382, 582.183, 603.635, 22.2055, 21.5948, 0.03487, 24.4461, 0.0000000E+000, 0.0000000E+000, 0.0000000E+000
 394.51,-0.40821,-0.0586382, 583.152, 604.609, 22.2251, 21.6069, 0.03487, 24.4461, 0.0000000E+000, 0.0000000E+000, 0.0000000E+000
 396.01,-0.40821,-0.0586382, 584.059, 605.518, 22.2448, 21.6192, 0.03487, 24.4461, 0.0000000E+000, 0.0000000E+000, 0.0000000E+000
 397.51,-0.40821,-0.0586382, 584.912, 606.37, 22.2647, 21.6317, 0.03487, 24.4461, 0.0000000E+000, 0.0000000E+000, 0.0000000E+000
 399.01,-0.40821,-0.0586382, 585.713, 607.17, 22.2848, 21.6442, 0.03487, 24.4461, 0.0000000E+000, 0.0000000E+000, 0.0000000E+000
 400.51,-0.40821,-0.0586382, 586.465, 607.925, 22.3052, 21.657, 0.03487, 24.4461, 0.0000000E+000, 0.0000000E+000, 0.0000000E+000
 402.01,-0.40821,-0.0586382, 587.16, 608.639, 22.3257, 21.6698, 0.03487, 24.4461, 0.0000000E+000, 0.0000000E+000, 0.0000000E+000
 403.51,-0.40821,-0.0586382, 587.841, 609.313, 22.3464, 21.6829, 0.03487, 24.4461, 0.0000000E+000, 0.0000000E+000, 0.0000000E+000
 405.01,-0.40821,-0.0586382, 588.489, 609.954, 22.3673, 21.696, 0.03487, 24.4461, 0.0000000E+000, 0.0000000E+000, 0.0000000E+000
 406.51,-0.40821,-0.0586382, 589.077, 610.563, 22.3885, 21.7093, 0.03487, 24.4461, 0.0000000E+000, 0.0000000E+000, 0.0000000E+000
 408.01,-0.40821,-0.0586382, 589.666, 611.142, 22.4098, 21.7228, 0.03487, 24.4461, 0.0000000E+000, 0.0000000E+000, 0.0000000E+000
 409.51,-0.40821,-0.0586382, 590.203, 611.699, 22.4314, 21.7364, 0.03487, 24.4461, 0.0000000E+000, 0.0000000E+000, 0.0000000E+000
 411.01,-0.40821,-0.0586382, 590.743, 612.227, 22.4531, 21.7501, 0.03487, 24.4461, 0.0000000E+000, 0.0000000E+000, 0.0000000E+000
 412.51,-0.40821,-0.0586382, 591.233, 612.736, 22.4751, 21.7641, 0.03487, 24.4461, 0.0000000E+000, 0.0000000E+000, 0.0000000E+000
 414.01,-0.40821,-0.0586382, 591.73, 613.219, 22.4973, 21.7781, 0.03487, 24.4461, 0.0000000E+000, 0.0000000E+000, 0.0000000E+000
 415.51,-0.40821,-0.0586382, 592.184, 613.69, 22.5198, 21.7923, 0.03487, 24.4461, 0.0000000E+000, 0.0000000E+000, 0.0000000E+000
 417.01,-0.40821,-0.0586382, 592.646, 614.138, 22.5424, 21.8067, 0.03487, 24.4461, 0.0000000E+000, 0.0000000E+000, 0.0000000E+000
 418.51,-0.40821,-0.0586382, 593.064, 614.571, 22.5653, 21.8212, 0.03487, 24.4461, 0.0000000E+000, 0.0000000E+000, 0.0000000E+000
 420.01,-0.40821,-0.0586382, 593.497, 614.988, 22.5885, 21.8359, 0.03487, 24.4461, 0.0000000E+000, 0.0000000E+000, 0.0000000E+000
 421.51,-0.40821,-0.0586382, 593.886, 615.392, 22.6119, 21.8508, 0.03487, 24.4461, 0.0000000E+000, 0.0000000E+000, 0.0000000E+000
 423.01,-0.40821,-0.0586382, 594.262, 615.782, 22.6355, 21.8658, 0.03487, 24.4461, 0.0000000E+000, 0.0000000E+000, 0.0000000E+000
 424.51,-0.40821,-0.0586382, 594.655, 616.158, 22.6594, 21.881, 0.03487, 24.4461, 0.0000000E+000, 0.0000000E+000, 0.0000000E+000
 426.01,-0.40821,-0.0586382, 595.005, 616.521, 22.6835, 21.8963, 0.03487, 24.4461, 0.0000000E+000, 0.0000000E+000, 0.0000000E+000
 427.51,-0.40821,-0.0586382, 595.368, 616.875, 22.7079, 21.9118, 0.03487, 24.4461, 0.0000000E+000, 0.0000000E+000, 0.0000000E+000
 429.01,-0.40821,-0.0586382, 595.704, 617.214, 22.7326, 21.9275, 0.03487, 24.4461, 0.0000000E+000, 0.0000000E+000, 0.0000000E+000
 430.51,-0.40821,-0.0586382, 596.027, 617.549, 22.7576, 21.9434, 0.03487, 24.4461, 0.0000000E+000, 0.0000000E+000, 0.0000000E+000
 432.01,-0.40821,-0.0586382, 596.353, 617.867, 22.7828, 21.9594, 0.03487, 24.4461, 0.0000000E+000, 0.0000000E+000, 0.0000000E+000
 433.51,-0.40821,-0.0586382, 596.666, 618.179, 22.8084, 21.9756, 0.03487, 24.4461, 0.0000000E+000, 0.0000000E+000, 0.0000000E+000
 435.01,-0.40821,-0.0586382, 596.956, 618.481, 22.8342, 21.992, 0.03487, 24.4461, 0.0000000E+000, 0.0000000E+000, 0.0000000E+000
 436.51,-0.40821,-0.0586382, 597.243, 618.778, 22.8604, 22.0085, 0.03487, 24.4461, 0.0000000E+000, 0.0000000E+000, 0.0000000E+000
 438.01,-0.40821,-0.0586382, 597.546, 619.06, 22.8869, 22.0253, 0.03487, 24.4461, 0.0000000E+000, 0.0000000E+000, 0.0000000E+000
 439.51,-0.40821,-0.0586382, 597.816, 619.34, 22.9137, 22.0422, 0.03487, 24.4461, 0.0000000E+000, 0.0000000E+000, 0.0000000E+000
 441.01,-0.40821,-0.0586382, 598.079, 619.613, 22.9408, 22.0593, 0.03487, 24.4461, 0.0000000E+000, 0.0000000E+000, 0.0000000E+000
 442.51,-0.40821,-0.0586382, 598.356, 619.876, 22.9683, 22.0766, 0.03487, 24.4461, 0.0000000E+000, 0.0000000E+000, 0.0000000E+000
 444.01,-0.40821,-0.0586382, 598.613, 620.135, 22.9962, 22.0941, 0.03487, 24.4461, 0.0000000E+000, 0.0000000E+000, 0.0000000E+000
 445.51,-0.40821,-0.0586382, 598.854, 620.385, 23.0244, 22.1118, 0.03487, 24.4461, 0.0000000E+000, 0.0000000E+000, 0.0000000E+000
 447.01,-0.40821,-0.0586382, 599.093, 620.633, 23.053, 22.1297, 0.03487, 24.4461, 0.0000000E+000, 0.0000000E+000, 0.0000000E+000
 448.51,-0.40821,-0.0586382, 599.35, 620.874, 23.082, 22.1478, 0.03487, 24.4461, 0.0000000E+000, 0.0000000E+000, 0.0000000E+000
 450.01,-0.40821,-0.0586382, 599.578, 621.104, 23.1114, 22.1661, 0.03487, 24.4461, 0.0000000E+000, 0.0000000E+000, 0.0000000E+000
 451.51,-0.40821,-0.0586382, 599.802, 621.336, 23.1412, 22.1846, 0.03487, 24.4461, 0.0000000E+000, 0.0000000E+000, 0.0000000E+000
 453.01,-0.40821,-0.0586382, 600.019, 621.562, 23.1714, 22.2034, 0.03487, 24.4461, 0.0000000E+000, 0.0000000E+000, 0.0000000E+000
 454.51,-0.40821,-0.0586382, 600.229, 621.779, 23.202, 22.2224, 0.03487, 24.4461, 0.0000000E+000, 0.0000000E+000, 0.0000000E+000
 456.01,-0.40821,-0.0586382, 600.466, 621.993, 23.2331, 22.2415, 0.03487, 24.4461, 0.0000000E+000, 0.0000000E+000, 0.0000000E+000
 457.51,-0.40821,-0.0586382, 600.668, 622.203, 23.2646, 22.261, 0.03487, 24.4461, 0.0000000E+000, 0.0000000E+000, 0.0000000E+000
 459.01,-0.40821,-0.0586382, 600.866, 622.408, 23.2966, 22.2806, 0.03487, 24.4461, 0.0000000E+000, 0.0000000E+000, 0.0000000E+000
 460.51,-0.40821,-0.0586382, 601.06, 622.61, 23.329, 22.3005, 0.03487, 24.4461, 0.0000000E+000, 0.0000000E+000, 0.0000000E+000
 462.01,-0.40821,-0.0586382, 601.253, 622.81, 23.3619, 22.3206, 0.03487, 24.4461, 0.0000000E+000, 0.0000000E+000, 0.0000000E+000
 463.51,-0.40821,-0.0586382, 601.464, 622.996, 23.3953, 22.341, 0.03487, 24.4461, 0.0000000E+000, 0.0000000E+000, 0.0000000E+000
 465.01,-0.40821,-0.0586382, 601.648, 623.187, 23.4292, 22.3616, 0.03487, 24.4461, 0.0000000E+000, 0.0000000E+000, 0.0000000E+000
 466.51,-0.40821,-0.0586382, 601.828, 623.374, 23.4635, 22.3825, 0.03487, 24.4461, 0.0000000E+000, 0.0000000E+000, 0.0000000E+000
 468.01,-0.40821,-0.0586382, 602.004, 623.556, 23.4984, 22.4037, 0.03487, 24.4461, 0.0000000E+000, 0.0000000E+000, 0.0000000E+000
 469.51,-0.40821,-0.0586382, 602.174, 623.732, 23.5338, 22.4251, 0.03487, 24.4461, 0.0000000E+000, 0.0000000E+000, 0.0000000E+000
 471.01,-0.40821,-0.0586382, 602.373, 623.908, 23.5697, 22.4468, 0.03487, 24.4461, 0.0000000E+000, 0.0000000E+000, 0.0000000E+000
 472.51,-0.40821,-0.0586382, 602.538, 624.078, 23.6061, 22.4687, 0.03487, 24.4461, 0.0000000E+000, 0.0000000E+000, 0.0000000E+000
 474.01,-0.40821,-0.0586382, 602.701, 624.247, 23.6431, 22.491, 0.03487, 24.4461, 0.0000000E+000, 0.0000000E+000, 0.0000000E+000
 475.51,-0.40821,-0.0586382, 602.861, 624.413, 23.6806, 22.5135, 0.03487, 24.4461, 0.0000000E+000, 0.0000000E+000, 0.0000000E+000
 477.01,-0.40821,-0.0586382, 603.018, 624.576, 23.7186, 22.5363, 0.03487, 24.4461, 0.0000000E+000, 0.0000000E+000, 0.0000000E+000
 478.51,-0.40821,-0.0586382, 603.175, 624.738, 23.7572, 22.5594, 0.03487, 24.4461, 0.0000000E+000, 0.0000000E+000, 0.0000000E+000
 480.01,-0.40821,-0.0586382, 603.354, 624.892, 23.7964, 22.5828, 0.03487, 24.4461, 0.0000000E+000, 0.0000000E+000, 0.0000000E+000
 481.51,-0.40821,-0.0586382, 603.5, 625.044, 23.8362, 22.6066, 0.03487, 24.4461, 0.0000000E+000, 0.0000000E+000, 0.0000000E+000
 483.01,-0.40821,-0.0586382, 603.648, 625.198, 23.8765, 22.6306, 0.03487, 24.4461, 0.0000000E+000, 0.0000000E+000, 0.0000000E+000
 484.51,-0.40821,-0.0586382, 603.795, 625.35, 23.9174, 22.6549, 0.03487, 24.4461, 0.0000000E+000, 0.0000000E+000, 0.0000000E+000
 486.01,-0.40821,-0.0586382, 603.936, 625.497, 23.9589, 22.6796, 0.03487, 24.4461, 0.0000000E+000, 0.0000000E+000, 0.0000000E+000
 487.51,-0.40821,-0.0586382, 604.073, 625.639, 24.0009, 22.7046, 0.03487, 24.4461, 0.0000000E+000, 0.0000000E+000, 0.0000000E+000
 489.01,-0.40821,-0.0586382, 604.213, 625.783, 24.0436, 22.7299, 0.03487, 24.4461, 0.0000000E+000, 0.0000000E+000, 0.0000000E+000
 490.51,-0.40821,-0.0586382, 604.376, 625.92, 24.0868, 22.7556, 0.03487, 24.4461, 0.0000000E+000, 0.0000000E+000, 0.0000000E+000
 492.01,-0.40821,-0.0586382, 604.509, 626.059, 24.1307, 22.7816, 0.03487, 24.4461, 0.0000000E+000, 0.0000000E+000, 0.0000000E+000
 493.51,-0.40821,-0.0586382, 604.642, 626.196, 24.1751, 22.808, 0.03487, 24.4461, 0.0000000E+000, 0.0000000E+000, 0.0000000E+000
 495.01,-0.40821,-0.0586382, 604.769, 626.328, 24.2202, 22.8347, 0.03487, 24.4461, 0.0000000E+000, 0.0000000E+000, 0.0000000E+000
 496.51,-0.40821,-0.0586382, 604.895, 626.459, 24.2659, 22.8617, 0.03487, 24.4461, 0.0000000E+000, 0.0000000E+000, 0.0000000E+000
 498.01,-0.40821,-0.0586382, 605.022, 626.591, 24.3122, 22.8892, 0.03487, 24.4461, 0.0000000E+000, 0.0000000E+000, 0.0000000E+000
 499.51,-0.40821,-0.0586382, 605.147, 626.72, 24.359, 22.917, 0.03487, 24.4461, 0.0000000E+000, 0.0000000E+000, 0.0000000E+000
 500,-0.40821,-0.0586382, 605.187, 626.762, 24.3747, 22.9262, 0.03487, 24.4461, 0.0000000E+000, 0.0000000E+000, 0.0000000E+000