File: PMMA/Calibration_Results/NIST_FSRI/All_Props/UMET_TK[NIST_FSRI]_Gasification_q50_R3_Mass.csv
s,kg/m2,,C,C,C,C,m,kg/m2,kg/m2,kg/m2,kg/m2/s
Time,"SD","MF","TW1","TSB1","TAL1","TB1","DX1","SD1","SD_11","SD_12","BR1"
 0.0000000E+000, 6.96094, 0.99992, 20.9, 20.9, 20.9, 20.9, 0.04099, 31.8153, 7.36915, 0.0000000E+000, 0.0000000E+000
 1.5, 6.96094, 0.99992, 68.4874, 20.9, 20.9, 20.9, 0.04099, 31.8153, 7.36915, 1.77921e-07, 1.57684e-08
 3.01, 6.96094, 0.99992, 103.389, 20.9002, 20.9, 20.9, 0.04099, 31.8153, 7.36915, 3.3728e-06, 2.11137e-07
 4.51, 6.96094, 0.99992, 129.069, 20.9013, 20.9, 20.9, 0.04099, 31.8153, 7.36913, 2.58098e-05, 1.16146e-06
 6.01, 6.96094, 0.999919, 149.946, 20.9073, 20.9, 20.9, 0.04099, 31.8153, 7.36903, 0.000116685, 4.04103e-06
 7.51, 6.96093, 0.999917, 167.711, 20.9285, 20.9, 20.9, 0.04099, 31.8153, 7.36876, 0.000382655, 1.06966e-05
 9.01, 6.9609, 0.999913, 183.246, 20.9902, 20.9, 20.9, 0.04099, 31.8152, 7.3681, 0.00101315, 2.36218e-05
 10.51, 6.96084, 0.999905, 197.084, 21.1195, 20.9, 20.9, 0.0409899, 31.8152, 7.36676, 0.00230322, 4.58527e-05
 12.01, 6.96074, 0.999891, 209.57, 21.334, 20.9, 20.9, 0.0409898, 31.8151, 7.3643, 0.0046707, 8.07813e-05
 13.51, 6.96057, 0.999866, 220.944, 21.6584, 20.9, 20.9, 0.0409897, 31.8149, 7.36015, 0.00866512, 0.000131897
 15.01, 6.9603, 0.999828, 231.38, 22.0794, 20.9, 20.9, 0.0409895, 31.8147, 7.3536, 0.0149648, 0.000202437
 16.51, 6.95991, 0.999771, 241.009, 22.7694, 20.9, 20.9, 0.0409892, 31.8143, 7.34383, 0.0243594, 0.000294981
 18, 6.95935, 0.999692, 249.903, 23.6038, 20.9, 20.9, 0.0409888, 31.8138, 7.33, 0.037664, 0.000410547
 19.5, 6.9586, 0.999583, 258.174, 24.3722, 20.9, 20.9, 0.0409882, 31.8131, 7.31116, 0.0557861, 0.000549282
 21, 6.95762, 0.999442, 265.914, 25.5457, 20.9, 20.9, 0.0409874, 31.8121, 7.28635, 0.0796552, 0.000709754
 22.5, 6.95637, 0.999264, 273.153, 26.708, 20.9, 20.9, 0.0409864, 31.8109, 7.25486, 0.109943, 0.000887487
 24, 6.95485, 0.999045, 279.941, 28.0196, 20.9, 20.9, 0.0409852, 31.8095, 7.21616, 0.147171, 0.00107656
 25.5, 6.95304, 0.998785, 286.324, 29.8195, 20.9, 20.9, 0.0409837, 31.8077, 7.16999, 0.191578, 0.00126965
 27, 6.95095, 0.998484, 292.345, 31.1422, 20.9, 20.9, 0.040982, 31.8056, 7.11645, 0.243075, 0.00145891
 28.5, 6.94858, 0.998143, 298.042, 33.0311, 20.9, 20.9, 0.0409801, 31.8033, 7.05598, 0.301219, 0.001637
 30, 6.94596, 0.997767, 303.449, 34.7923, 20.9, 20.9, 0.0409779, 31.8007, 6.98939, 0.365232, 0.00179823
 31.5, 6.94311, 0.997359, 308.596, 36.6883, 20.9, 20.9, 0.0409756, 31.7979, 6.91776, 0.434049, 0.00193955
 33, 6.94008, 0.996923, 313.504, 39.1091, 20.9, 20.9, 0.0409731, 31.7949, 6.84239, 0.506413, 0.00206137
 34.5, 6.93688, 0.996463, 318.19, 41.8776, 20.9, 20.9, 0.0409705, 31.7918, 6.76465, 0.580978, 0.00216774
 36, 6.93353, 0.995982, 322.661, 43.3402, 20.9, 20.9, 0.0409677, 31.7884, 6.68588, 0.656429, 0.0022661
 37.5, 6.93003, 0.995479, 326.919, 44.9131, 20.9, 20.9, 0.0409648, 31.7849, 6.60724, 0.731587, 0.00236631
 39, 6.92637, 0.994953, 330.959, 48.0474, 20.9, 20.9, 0.0409618, 31.7813, 6.5297, 0.805494, 0.0024793
 40.5, 6.92251, 0.994399, 334.774, 50.6262, 20.9, 20.9, 0.0409586, 31.7775, 6.45393, 0.877448, 0.00261543
 42, 6.91842, 0.993812, 338.353, 52.9889, 20.9, 20.9, 0.0409553, 31.7735, 6.38032, 0.947008, 0.00278305
 43.51, 6.91405, 0.993183, 341.701, 55.5125, 20.9, 20.9, 0.0409517, 31.7691, 6.30881, 1.01418, 0.00298819
 45.01, 6.90932, 0.992505, 344.798, 58.1281, 20.9, 20.9, 0.0409478, 31.7644, 6.23962, 1.07869, 0.00323228
 46.51, 6.9042, 0.991769, 347.635, 60.7002, 20.9, 20.9, 0.0409436, 31.7594, 6.17284, 1.14042, 0.00351299
 48.01, 6.89862, 0.990967, 350.224, 63.0721, 20.9, 20.9, 0.040939, 31.7539, 6.10804, 1.19971, 0.00382713
 49.51, 6.89254, 0.990094, 352.573, 65.6805, 20.9, 20.9, 0.040934, 31.7479, 6.04501, 1.25675, 0.00416896
 51.01, 6.88592, 0.989144, 354.693, 67.3665, 20.9, 20.9, 0.0409286, 31.7413, 5.98353, 1.3117, 0.00453167
 52.51, 6.87875, 0.988113, 356.598, 71.9327, 20.9, 20.9, 0.0409227, 31.7343, 5.92341, 1.36473, 0.0049081
 54.01, 6.87101, 0.987001, 358.305, 73.3689, 20.9, 20.9, 0.0409164, 31.7266, 5.8645, 1.41599, 0.00529138
 55.51, 6.86269, 0.985806, 359.831, 76.2855, 20.9, 20.9, 0.0409095, 31.7184, 5.80665, 1.46561, 0.00567562
 57.01, 6.85379, 0.984528, 361.194, 77.9029, 20.9, 20.9, 0.0409022, 31.7096, 5.74975, 1.51371, 0.00605553
 58.51, 6.84433, 0.98317, 362.412, 80.5582, 20.9, 20.9, 0.0408944, 31.7002, 5.69372, 1.56037, 0.00642766
 60.01, 6.83433, 0.981732, 363.503, 84.342, 20.9, 20.9, 0.0408862, 31.6903, 5.63849, 1.60568, 0.00678929
 61.51, 6.8238, 0.980219, 364.48, 85.8848, 20.9, 20.9, 0.0408775, 31.6798, 5.584, 1.64972, 0.00713857
 63.01, 6.81275, 0.978633, 365.359, 89.7141, 20.9, 20.9, 0.0408684, 31.6689, 5.53019, 1.69257, 0.00747455
 64.51, 6.80121, 0.976975, 366.151, 91.2099, 20.9, 20.9, 0.0408589, 31.6574, 5.47701, 1.73429, 0.0077971
 66.01, 6.78921, 0.975251, 366.871, 95.3852, 20.9, 20.9, 0.040849, 31.6455, 5.42441, 1.77496, 0.00810685
 67.51, 6.77675, 0.973461, 367.524, 98.3724, 20.9, 20.9, 0.0408387, 31.6331, 5.37234, 1.81464, 0.00840332
 69.01, 6.76386, 0.97161, 368.118, 100.733, 20.9, 20.9, 0.0408281, 31.6203, 5.32075, 1.8534, 0.00868658
 70.51, 6.75056, 0.969698, 368.666, 102.753, 20.9, 20.9, 0.0408171, 31.607, 5.2696, 1.89132, 0.00895939
 72.01, 6.73686, 0.96773, 369.166, 106.043, 20.9, 20.9, 0.0408057, 31.5934, 5.21885, 1.92843, 0.00921924
 73.5, 6.72277, 0.965708, 369.63, 107.668, 20.9, 20.9, 0.0407942, 31.5795, 5.16878, 1.96458, 0.00946925
 75, 6.70833, 0.963632, 370.058, 112.283, 20.9, 20.9, 0.0407822, 31.5651, 5.11868, 2.00029, 0.00970898
 76.5, 6.69353, 0.961507, 370.461, 113.885, 20.9, 20.9, 0.04077, 31.5503, 5.06886, 2.03537, 0.00994122
 78, 6.67839, 0.959332, 370.834, 115.787, 20.9, 20.9, 0.0407575, 31.5353, 5.01928, 2.06986, 0.0101645
 79.5, 6.66293, 0.957111, 371.181, 118.873, 20.9, 20.9, 0.0407447, 31.5199, 4.96992, 2.10382, 0.0103783
 81, 6.64715, 0.954844, 371.516, 121.248, 20.9, 20.9, 0.0407316, 31.5041, 4.92073, 2.13728, 0.0105883
 82.5, 6.63106, 0.952533, 371.826, 123.07, 20.9, 20.9, 0.0407183, 31.4881, 4.87169, 2.17028, 0.0107896
 84, 6.61468, 0.95018, 372.117, 126.469, 20.9, 20.9, 0.0407047, 31.4718, 4.82277, 2.20287, 0.0109836
 85.5, 6.59801, 0.947786, 372.398, 127.878, 20.9, 20.9, 0.0406909, 31.4551, 4.77394, 2.23507, 0.0111744
 87, 6.58106, 0.945351, 372.665, 132.53, 20.9001, 20.9, 0.0406769, 31.4382, 4.72518, 2.26693, 0.0113598
 88.5, 6.56384, 0.942877, 372.916, 134.256, 20.9001, 20.9, 0.0406626, 31.4211, 4.67646, 2.29848, 0.0115385
 90, 6.54636, 0.940366, 373.154, 136.874, 20.9001, 20.9, 0.0406481, 31.4036, 4.62774, 2.32975, 0.0117124
 91.5, 6.52861, 0.937817, 373.389, 137.609, 20.9001, 20.9, 0.0406334, 31.3859, 4.57902, 2.36078, 0.0118842
 93, 6.51062, 0.935232, 373.613, 140.175, 20.9001, 20.9, 0.0406185, 31.368, 4.53025, 2.39159, 0.0120532
 94.5, 6.49237, 0.932611, 373.826, 145.183, 20.9002, 20.9, 0.0406034, 31.3498, 4.48142, 2.42221, 0.0122163
 96, 6.47389, 0.929956, 374.028, 146.394, 20.9002, 20.9, 0.0405881, 31.3313, 4.43251, 2.45268, 0.012375
 97.5, 6.45517, 0.927267, 374.224, 147.377, 20.9002, 20.9, 0.0405726, 31.3126, 4.38349, 2.48302, 0.012531
 99, 6.43621, 0.924544, 374.419, 150.442, 20.9003, 20.9, 0.0405569, 31.2937, 4.33434, 2.51325, 0.0126867
 100.5, 6.41703, 0.921788, 374.607, 152.137, 20.9003, 20.9, 0.040541, 31.2746, 4.28505, 2.5434, 0.0128397
 102, 6.39762, 0.919, 374.787, 154.583, 20.9004, 20.9, 0.0405249, 31.2552, 4.23558, 2.5735, 0.0129889
 103.5, 6.37799, 0.91618, 374.959, 157.008, 20.9004, 20.9, 0.0405086, 31.2356, 4.18593, 2.60356, 0.0131342
 105, 6.35814, 0.913329, 375.125, 160, 20.9005, 20.9001, 0.0404921, 31.2158, 4.13607, 2.6336, 0.0132768
 106.5, 6.33808, 0.910448, 375.288, 161.796, 20.9006, 20.9001, 0.0404755, 31.1958, 4.08598, 2.66366, 0.0134181
 108, 6.31781, 0.907536, 375.453, 164.356, 20.9007, 20.9001, 0.0404587, 31.1755, 4.03566, 2.69375, 0.01356
 109.5, 6.29733, 0.904594, 375.613, 165.707, 20.9008, 20.9001, 0.0404417, 31.1551, 3.98508, 2.72389, 0.0137
 111, 6.27664, 0.901622, 375.766, 168.225, 20.9009, 20.9001, 0.0404246, 31.1344, 3.93423, 2.75408, 0.0138371
 112.5, 6.25575, 0.898621, 375.914, 170.325, 20.901, 20.9001, 0.0404072, 31.1136, 3.8831, 2.78436, 0.0139715
 114, 6.23466, 0.895592, 376.058, 172.402, 20.9012, 20.9001, 0.0403898, 31.0925, 3.83166, 2.81474, 0.0141031
 115.5, 6.21338, 0.892534, 376.197, 175.261, 20.9013, 20.9002, 0.0403721, 31.0713, 3.77992, 2.84523, 0.0142326
 117, 6.1919, 0.889448, 376.336, 177.499, 20.9015, 20.9002, 0.0403543, 31.0498, 3.72785, 2.87585, 0.0143624
 118.5, 6.17022, 0.886335, 376.473, 177.499, 20.9017, 20.9002, 0.0403363, 31.0282, 3.67544, 2.90661, 0.0144908
 120, 6.14835, 0.883194, 376.616, 179.691, 20.9019, 20.9003, 0.0403182, 31.0063, 3.6227, 2.93752, 0.0146221
 121.5, 6.12629, 0.880025, 376.748, 182.471, 20.9022, 20.9003, 0.0402999, 30.9843, 3.5696, 2.96859, 0.0147483
 123, 6.10404, 0.876829, 376.878, 184.625, 20.9024, 20.9003, 0.0402814, 30.9621, 3.51614, 2.99983, 0.0148738
 124.5, 6.08161, 0.873606, 377.004, 185.745, 20.9027, 20.9004, 0.0402628, 30.9397, 3.46231, 3.03125, 0.0149967
 126, 6.05899, 0.870357, 377.127, 188.671, 20.903, 20.9004, 0.0402441, 30.9171, 3.40812, 3.06286, 0.0151173
 127.5, 6.03619, 0.867082, 377.248, 189.749, 20.9033, 20.9005, 0.0402252, 30.8943, 3.35355, 3.09466, 0.0152364
 129, 6.01322, 0.863782, 377.368, 189.99, 20.9037, 20.9006, 0.0402061, 30.8714, 3.2986, 3.12667, 0.0153555
 130.5, 5.99007, 0.860456, 377.486, 193.063, 20.9041, 20.9006, 0.0401869, 30.8483, 3.24328, 3.15886, 0.0154735
 132, 5.96674, 0.857105, 377.609, 194.896, 20.9045, 20.9007, 0.0401676, 30.825, 3.18759, 3.19126, 0.0155929
 133.5, 5.94323, 0.853728, 377.731, 197.322, 20.905, 20.9008, 0.0401481, 30.8015, 3.13151, 3.22385, 0.0157119
 135, 5.91954, 0.850326, 377.846, 197.686, 20.9055, 20.9009, 0.0401284, 30.7778, 3.07507, 3.25664, 0.0158271
 136.5, 5.89568, 0.846899, 377.959, 201.916, 20.906, 20.901, 0.0401086, 30.754, 3.01827, 3.28961, 0.015942
 138, 5.87166, 0.843447, 378.07, 202.857, 20.9066, 20.9011, 0.0400887, 30.73, 2.96111, 3.32277, 0.0160543
 139.5, 5.84746, 0.839972, 378.179, 202.55, 20.9072, 20.9012, 0.0400686, 30.7058, 2.90361, 3.35611, 0.0161647
 141, 5.82311, 0.836473, 378.286, 206.73, 20.9078, 20.9014, 0.0400484, 30.6815, 2.84577, 3.38962, 0.0162731
 142.5, 5.79859, 0.832951, 378.392, 207.207, 20.9085, 20.9015, 0.0400281, 30.657, 2.7876, 3.42329, 0.0163803
 144, 5.77391, 0.829406, 378.498, 209.715, 20.9092, 20.9016, 0.0400076, 30.6324, 2.72913, 3.45711, 0.0164887
 145.5, 5.74907, 0.825838, 378.603, 209.953, 20.91, 20.9018, 0.039987, 30.6075, 2.67038, 3.49105, 0.0165944
 147, 5.72407, 0.822247, 378.707, 214.065, 20.9109, 20.902, 0.0399663, 30.5826, 2.61135, 3.52511, 0.016699
 148.5, 5.69891, 0.818633, 378.82, 214.272, 20.9118, 20.9022, 0.0399454, 30.5574, 2.55208, 3.55925, 0.016808
 150, 5.6736, 0.814996, 378.923, 217.532, 20.9127, 20.9024, 0.0399244, 30.5322, 2.49258, 3.59346, 0.0169109
 151.5, 5.64813, 0.811338, 379.025, 217.503, 20.9137, 20.9026, 0.0399033, 30.5067, 2.43289, 3.62771, 0.0170134
 153, 5.62251, 0.807657, 379.126, 219.914, 20.9147, 20.9029, 0.039882, 30.4811, 2.37302, 3.66198, 0.0171135
 154.5, 5.59674, 0.803956, 379.224, 221.287, 20.9158, 20.9031, 0.0398606, 30.4554, 2.31301, 3.69624, 0.0172108
 156, 5.57083, 0.800233, 379.321, 222.238, 20.917, 20.9034, 0.0398391, 30.4295, 2.2529, 3.73046, 0.0173058
 157.5, 5.54477, 0.796491, 379.417, 221.949, 20.9183, 20.9037, 0.0398175, 30.4035, 2.19271, 3.76462, 0.0173997
 159, 5.51858, 0.792728, 379.512, 226.955, 20.9196, 20.904, 0.0397958, 30.3773, 2.13249, 3.79868, 0.0174922
 160.51, 5.49225, 0.788946, 379.609, 227.263, 20.9209, 20.9044, 0.0397738, 30.3508, 2.07186, 3.83281, 0.0175855
 162.01, 5.46578, 0.785144, 379.703, 227.957, 20.9224, 20.9047, 0.0397518, 30.3244, 2.01168, 3.86655, 0.0176757
 163.51, 5.43918, 0.781322, 379.797, 229.86, 20.9239, 20.9051, 0.0397297, 30.2978, 1.95159, 3.90006, 0.0177634
 165.01, 5.41244, 0.777482, 379.894, 231.344, 20.9255, 20.9055, 0.0397075, 30.2711, 1.89163, 3.93331, 0.0178513
 166.51, 5.38558, 0.773623, 379.994, 233.223, 20.9271, 20.9059, 0.0396853, 30.2442, 1.83184, 3.96626, 0.017941
 168.01, 5.35858, 0.769745, 380.088, 236.716, 20.9289, 20.9064, 0.0396628, 30.2172, 1.77227, 3.99885, 0.0180271
 169.51, 5.33145, 0.765848, 380.182, 238.163, 20.9307, 20.9069, 0.0396403, 30.1901, 1.71298, 4.03104, 0.018111
 171.01, 5.30421, 0.761935, 380.273, 239.6, 20.9326, 20.9074, 0.0396177, 30.1629, 1.65401, 4.06278, 0.0181909
 172.51, 5.27684, 0.758004, 380.362, 241.026, 20.9345, 20.9079, 0.039595, 30.1356, 1.59541, 4.09403, 0.0182691
 174.01, 5.24936, 0.754056, 380.451, 242.442, 20.9366, 20.9085, 0.0395722, 30.1081, 1.53725, 4.12473, 0.0183448
 175.51, 5.22177, 0.750093, 380.539, 243.849, 20.9388, 20.9091, 0.0395493, 30.0805, 1.47956, 4.15484, 0.0184183
 177.01, 5.19407, 0.746114, 380.626, 245.245, 20.941, 20.9098, 0.0395263, 30.0528, 1.42242, 4.18431, 0.0184908
 178.51, 5.16626, 0.742119, 380.716, 246.634, 20.9433, 20.9104, 0.0395032, 30.025, 1.36586, 4.21306, 0.0185644
 180.01, 5.13835, 0.738109, 380.803, 248.013, 20.9457, 20.9112, 0.0394801, 29.9971, 1.30996, 4.24107, 0.0186343
 181.51, 5.11033, 0.734084, 380.889, 249.384, 20.9483, 20.9119, 0.0394568, 29.9691, 1.25476, 4.26826, 0.0187013
 183.01, 5.08221, 0.730045, 380.974, 250.748, 20.9509, 20.9127, 0.0394335, 29.941, 1.20033, 4.29459, 0.0187668
 184.51, 5.05399, 0.725992, 381.059, 252.104, 20.9536, 20.9135, 0.0394101, 29.9128, 1.14671, 4.32001, 0.0188309
 186.01, 5.02568, 0.721925, 381.156, 253.452, 20.9564, 20.9144, 0.0393866, 29.8845, 1.09397, 4.34446, 0.0188995
 187.51, 4.99726, 0.717843, 381.246, 254.794, 20.9593, 20.9153, 0.039363, 29.8561, 1.04216, 4.36787, 0.0189664
 189.01, 4.96875, 0.713747, 381.333, 256.129, 20.9623, 20.9162, 0.0393393, 29.8276, 0.991327, 4.3902, 0.0190289
 190.51, 4.94015, 0.709638, 381.418, 257.457, 20.9655, 20.9172, 0.0393156, 29.7991, 0.941533, 4.41141, 0.0190884
 192.01, 4.91146, 0.705517, 381.502, 258.78, 20.9687, 20.9182, 0.0392917, 29.7704, 0.892825, 4.43144, 0.0191454
 193.51, 4.88268, 0.701384, 381.584, 260.096, 20.972, 20.9193, 0.0392679, 29.7416, 0.845255, 4.45025, 0.0192004
 195.01, 4.85383, 0.697239, 381.666, 261.406, 20.9755, 20.9204, 0.0392439, 29.7128, 0.798869, 4.46779, 0.0192547
 196.51, 4.82489, 0.693082, 381.748, 262.712, 20.9791, 20.9216, 0.0392199, 29.6839, 0.753713, 4.48403, 0.0193091
 198.01, 4.79587, 0.688914, 381.833, 264.011, 20.9827, 20.9228, 0.0391958, 29.6549, 0.70983, 4.4989, 0.0193641
 199.51, 4.76678, 0.684734, 381.915, 265.305, 20.9865, 20.9241, 0.0391716, 29.6258, 0.667259, 4.51239, 0.0194162
 201.01, 4.7376, 0.680543, 381.997, 266.594, 20.9904, 20.9255, 0.0391474, 29.5966, 0.626038, 4.52445, 0.0194674
 202.51, 4.70835, 0.676341, 382.078, 267.878, 20.9945, 20.9268, 0.0391231, 29.5674, 0.5862, 4.53504, 0.0195175
 204.01, 4.67902, 0.672129, 382.158, 269.157, 20.9986, 20.9283, 0.0390988, 29.538, 0.547775, 4.54415, 0.0195668
 205.51, 4.64963, 0.667906, 382.238, 270.43, 21.0029, 20.9298, 0.0390744, 29.5087, 0.510789, 4.55175, 0.019615
 207.01, 4.62015, 0.663672, 382.318, 271.696, 21.0073, 20.9313, 0.0390499, 29.4792, 0.475263, 4.55782, 0.0196649
 208.51, 4.5906, 0.659426, 382.414, 272.956, 21.0118, 20.9329, 0.0390254, 29.4497, 0.441216, 4.56232, 0.0197247
 210.01, 4.56096, 0.655168, 382.499, 274.209, 21.0165, 20.9346, 0.0390008, 29.42, 0.408661, 4.56525, 0.0197774
 211.51, 4.53124, 0.6509, 382.579, 275.456, 21.0213, 20.9364, 0.0389761, 29.3903, 0.377607, 4.5666, 0.019827
 213.01, 4.50145, 0.646621, 382.659, 276.698, 21.0262, 20.9382, 0.0389514, 29.3606, 0.348056, 4.56637, 0.0198764
 214.51, 4.47158, 0.642331, 382.738, 277.934, 21.0312, 20.94, 0.0389266, 29.3307, 0.320008, 4.56457, 0.0199269
 216.01, 4.44164, 0.63803, 382.817, 279.162, 21.0364, 20.942, 0.0389017, 29.3008, 0.293455, 4.56119, 0.0199767
 217.51, 4.41163, 0.633718, 382.896, 280.384, 21.0417, 20.944, 0.0388768, 29.2708, 0.268386, 4.55626, 0.0200287
 219.01, 4.38153, 0.629395, 382.977, 281.6, 21.0472, 20.946, 0.0388518, 29.2407, 0.244784, 4.54978, 0.0200829
 220.51, 4.35135, 0.62506, 383.057, 282.808, 21.0528, 20.9482, 0.0388268, 29.2105, 0.222626, 4.54177, 0.0201371
 222.01, 4.32109, 0.620713, 383.135, 284.007, 21.0585, 20.9504, 0.0388017, 29.1803, 0.201886, 4.53226, 0.0201917
 223.51, 4.29075, 0.616354, 383.213, 285.199, 21.0643, 20.9527, 0.0387765, 29.1499, 0.182533, 4.52129, 0.0202464
 225.01, 4.26032, 0.611984, 383.291, 286.382, 21.0703, 20.955, 0.0387512, 29.1195, 0.164532, 4.50888, 0.0203016
 226.51, 4.22982, 0.607601, 383.368, 287.556, 21.0765, 20.9575, 0.0387259, 29.089, 0.147841, 4.49507, 0.0203587
 228.01, 4.19922, 0.603206, 383.445, 288.719, 21.0828, 20.96, 0.0387005, 29.0584, 0.132417, 4.47991, 0.0204186
 229.51, 4.16853, 0.598797, 383.526, 289.871, 21.0892, 20.9626, 0.038675, 29.0278, 0.118214, 4.46344, 0.0204828
 231.01, 4.13774, 0.594375, 383.606, 291.014, 21.0958, 20.9652, 0.0386495, 28.997, 0.105181, 4.4457, 0.0205461
 232.51, 4.10685, 0.589937, 383.695, 292.145, 21.1025, 20.968, 0.0386238, 28.9661, 0.0932641, 4.42674, 0.020617
 234.01, 4.07585, 0.585485, 383.775, 293.265, 21.1094, 20.9708, 0.0385981, 28.9351, 0.0824085, 4.40662, 0.0206855
 235.51, 4.04476, 0.581018, 383.853, 294.373, 21.1164, 20.9737, 0.0385723, 28.9041, 0.072557, 4.38539, 0.0207528
 237.01, 4.01356, 0.576537, 383.93, 295.469, 21.1236, 20.9767, 0.0385464, 28.8729, 0.0636512, 4.36312, 0.0208211
 238.51, 3.98226, 0.572041, 384.006, 296.552, 21.1309, 20.9798, 0.0385204, 28.8416, 0.0556321, 4.33985, 0.0208895
 240.01, 3.95085, 0.567529, 384.084, 297.623, 21.1383, 20.983, 0.0384943, 28.8102, 0.0484405, 4.31566, 0.0209634
 241.51, 3.91933, 0.563001, 384.163, 298.68, 21.146, 20.9862, 0.0384682, 28.7787, 0.0420174, 4.29058, 0.0210387
 243.01, 3.8877, 0.558457, 384.24, 299.724, 21.1537, 20.9896, 0.0384419, 28.7471, 0.0363045, 4.26467, 0.0211127
 244.51, 3.85596, 0.553898, 384.316, 300.754, 21.1617, 20.993, 0.0384156, 28.7154, 0.0312449, 4.23801, 0.0211863
 246.01, 3.8241, 0.549322, 384.391, 301.769, 21.1698, 20.9965, 0.0383891, 28.6835, 0.0267831, 4.21064, 0.0212603
 247.51, 3.79214, 0.54473, 384.466, 302.771, 21.178, 21.0002, 0.0383626, 28.6516, 0.0228656, 4.1826, 0.0213371
 249.01, 3.76006, 0.540121, 384.541, 303.757, 21.1864, 21.0039, 0.038336, 28.6195, 0.0194413, 4.15396, 0.0214138
 250.51, 3.72786, 0.535496, 384.616, 304.729, 21.195, 21.0077, 0.0383092, 28.5873, 0.0164614, 4.12477, 0.0214903
 252.01, 3.69554, 0.530854, 384.694, 305.686, 21.2037, 21.0116, 0.0382824, 28.5551, 0.0138801, 4.09505, 0.0215713
 253.51, 3.66311, 0.526195, 384.77, 306.629, 21.2126, 21.0156, 0.0382555, 28.5226, 0.0116541, 4.06486, 0.0216495
 255.01, 3.63055, 0.521519, 384.845, 307.557, 21.2216, 21.0197, 0.0382285, 28.4901, 0.00974351, 4.03424, 0.0217281
 256.51, 3.59788, 0.516826, 384.92, 308.471, 21.2308, 21.0239, 0.0382014, 28.4574, 0.00811113, 4.00322, 0.0218058
 258.01, 3.56509, 0.512115, 385.006, 309.37, 21.2402, 21.0282, 0.0381741, 28.4247, 0.006723, 3.97183, 0.0218893
 259.51, 3.53218, 0.507388, 385.081, 310.255, 21.2497, 21.0326, 0.0381468, 28.3918, 0.00554814, 3.94011, 0.0219666
 261.01, 3.49915, 0.502644, 385.154, 311.126, 21.2594, 21.0372, 0.0381194, 28.3588, 0.00455847, 3.9081, 0.0220425
 262.51, 3.46601, 0.497883, 385.231, 311.984, 21.2692, 21.0418, 0.0380919, 28.3257, 0.00372878, 3.8758, 0.0221218
 264.01, 3.43275, 0.493105, 385.307, 312.829, 21.2792, 21.0465, 0.0380643, 28.2924, 0.00303652, 3.84325, 0.0221988
 265.51, 3.39938, 0.488311, 385.38, 313.659, 21.2894, 21.0513, 0.0380366, 28.2591, 0.00246172, 3.81047, 0.022272
 267.01, 3.3659, 0.483502, 385.452, 314.477, 21.2998, 21.0563, 0.0380088, 28.2256, 0.00198673, 3.77749, 0.0223429
 268.51, 3.33231, 0.478678, 385.524, 315.282, 21.3103, 21.0613, 0.0379809, 28.192, 0.00159613, 3.74431, 0.0224144
 270.01, 3.29862, 0.473838, 385.596, 316.075, 21.3209, 21.0665, 0.037953, 28.1583, 0.00127649, 3.71095, 0.0224844
 271.51, 3.26483, 0.468983, 385.668, 316.856, 21.3318, 21.0718, 0.0379249, 28.1246, 0.00101619, 3.67744, 0.0225513
 273.01, 3.23094, 0.464115, 385.738, 317.626, 21.3428, 21.0772, 0.0378968, 28.0907, 0.000805245, 3.64377, 0.022617
 274.51, 3.19694, 0.459232, 385.812, 318.385, 21.354, 21.0827, 0.0378686, 28.0567, 0.000635139, 3.60996, 0.0226843
 276.01, 3.16285, 0.454335, 385.885, 319.132, 21.3654, 21.0883, 0.0378403, 28.0226, 0.000498638, 3.57602, 0.0227511
 277.51, 3.12866, 0.449423, 385.957, 319.87, 21.3769, 21.094, 0.0378119, 27.9885, 0.000389643, 3.54196, 0.0228138
 279.01, 3.09438, 0.444499, 386.028, 320.599, 21.3886, 21.0998, 0.0377834, 27.9542, 0.000303041, 3.50778, 0.022875
 280.51, 3.06001, 0.439562, 386.098, 321.318, 21.4004, 21.1058, 0.0377549, 27.9198, 0.000234572, 3.47349, 0.0229328
 282.01, 3.02555, 0.434612, 386.167, 322.029, 21.4125, 21.1119, 0.0377263, 27.8854, 0.000180708, 3.4391, 0.0229881
 283.51, 2.99101, 0.429651, 386.237, 322.731, 21.4247, 21.1181, 0.0376976, 27.8509, 0.000138546, 3.40462, 0.023045
 285.01, 2.95639, 0.424677, 386.311, 323.426, 21.4371, 21.1244, 0.0376689, 27.8163, 0.000105708, 3.37004, 0.0231013
 286.51, 2.92168, 0.419691, 386.392, 324.115, 21.4496, 21.1308, 0.0376401, 27.7816, 8.02617e-05, 3.33537, 0.0231613
 288.01, 2.88688, 0.414692, 386.466, 324.795, 21.4623, 21.1374, 0.0376112, 27.7468, 6.06422e-05, 3.3006, 0.0232159
 289.51, 2.85201, 0.409683, 386.536, 325.47, 21.4752, 21.1441, 0.0375822, 27.7119, 4.55921e-05, 3.26576, 0.0232664
 291.01, 2.81706, 0.404662, 386.607, 326.14, 21.4883, 21.1509, 0.0375532, 27.677, 3.41063e-05, 3.23083, 0.0233165
 292.51, 2.78203, 0.399632, 386.677, 326.804, 21.5016, 21.1578, 0.0375241, 27.642, 2.53858e-05, 3.19583, 0.0233637
 294.01, 2.74695, 0.394591, 386.745, 327.463, 21.515, 21.1649, 0.037495, 27.6069, 1.8799e-05, 3.16075, 0.0234073
 295.51, 2.71179, 0.389541, 386.814, 328.119, 21.5286, 21.1721, 0.0374658, 27.5718, 1.38498e-05, 3.12562, 0.0234509
 297.01, 2.67657, 0.384482, 386.882, 328.771, 21.5423, 21.1794, 0.0374366, 27.5365, 1.01507e-05, 3.09041, 0.0234925
 298.51, 2.64129, 0.379414, 386.953, 329.419, 21.5563, 21.1869, 0.0374073, 27.5013, 7.40054e-06, 3.05514, 0.0235361
 300.01, 2.60594, 0.374336, 387.027, 330.065, 21.5704, 21.1944, 0.0373779, 27.4659, 5.36683e-06, 3.01981, 0.0235802
 301.51, 2.57053, 0.36925, 387.097, 330.709, 21.5847, 21.2021, 0.0373485, 27.4305, 3.87107e-06, 2.98441, 0.0236204
 303.01, 2.53506, 0.364155, 387.166, 331.35, 21.5992, 21.21, 0.0373191, 27.3951, 2.77697e-06, 2.94895, 0.0236571
 304.51, 2.49954, 0.359052, 387.234, 331.991, 21.6138, 21.2179, 0.0372896, 27.3596, 1.98109e-06, 2.91344, 0.0236921
 306.01, 2.46397, 0.353942, 387.305, 332.631, 21.6287, 21.226, 0.03726, 27.324, 1.40539e-06, 2.87787, 0.0237306
 307.51, 2.42833, 0.348823, 387.375, 333.27, 21.6437, 21.2343, 0.0372305, 27.2884, 9.91304e-07, 2.84225, 0.0237655
 309.01, 2.39265, 0.343698, 387.444, 333.909, 21.6589, 21.2426, 0.0372008, 27.2527, 6.95182e-07, 2.80658, 0.0237975
 310.51, 2.35693, 0.338566, 387.513, 334.55, 21.6742, 21.2511, 0.0371712, 27.217, 4.84651e-07, 2.77086, 0.0238296
 312.01, 2.32114, 0.333426, 387.588, 335.19, 21.6898, 21.2597, 0.0371415, 27.1812, 3.35857e-07, 2.73508, 0.0238667
 313.51, 2.28531, 0.328278, 387.661, 335.832, 21.7055, 21.2685, 0.0371117, 27.1454, 2.31327e-07, 2.69926, 0.0239006
 315.01, 2.24943, 0.323124, 387.736, 336.476, 21.7214, 21.2774, 0.0370819, 27.1095, 1.58343e-07, 2.66338, 0.0239332
 316.51, 2.21349, 0.317962, 387.814, 337.121, 21.7375, 21.2865, 0.0370521, 27.0736, 1.077e-07, 2.62745, 0.0239676
 318.01, 2.17751, 0.312793, 387.886, 337.77, 21.7537, 21.2956, 0.0370222, 27.0376, 7.27825e-08, 2.59148, 0.0239977
 319.51, 2.14148, 0.307618, 387.958, 338.421, 21.7702, 21.305, 0.0369923, 27.0016, 4.88621e-08, 2.55546, 0.0240271
 321.01, 2.10541, 0.302437, 388.031, 339.075, 21.7868, 21.3144, 0.0369623, 26.9655, 3.2583e-08, 2.5194, 0.024056
 322.51, 2.0693, 0.297249, 388.104, 339.734, 21.8036, 21.324, 0.0369323, 26.9294, 2.15785e-08, 2.48329, 0.0240845
 324.01, 2.03315, 0.292056, 388.181, 340.396, 21.8206, 21.3338, 0.0369023, 26.8933, 1.41905e-08, 2.44714, 0.0241144
 325.51, 1.99695, 0.286856, 388.255, 341.063, 21.8377, 21.3436, 0.0368723, 26.8571, 9.265e-09, 2.41095, 0.0241404
 327.01, 1.96071, 0.28165, 388.331, 341.735, 21.8551, 21.3537, 0.0368422, 26.8208, 6.00478e-09, 2.37472, 0.0241707
 328.51, 1.92442, 0.276438, 388.406, 342.412, 21.8726, 21.3638, 0.036812, 26.7846, 3.86255e-09, 2.33844, 0.0241968
 330.01, 1.88811, 0.271221, 388.481, 343.095, 21.8903, 21.3741, 0.0367819, 26.7482, 2.46544e-09, 2.30213, 0.024221
 331.51, 1.85175, 0.265999, 388.556, 343.783, 21.9082, 21.3846, 0.0367517, 26.7119, 1.56125e-09, 2.26578, 0.024246
 333.01, 1.81536, 0.260771, 388.632, 344.479, 21.9262, 21.3952, 0.0367215, 26.6755, 9.80672e-10, 2.22939, 0.0242701
 334.51, 1.77892, 0.255537, 388.711, 345.181, 21.9445, 21.4059, 0.0366912, 26.6391, 6.10877e-10, 2.19297, 0.0242962
 336.01, 1.74245, 0.250299, 388.793, 345.89, 21.9629, 21.4168, 0.036661, 26.6026, 3.7728e-10, 2.1565, 0.0243234
 337.51, 1.70594, 0.245054, 388.875, 346.607, 21.9815, 21.4278, 0.0366306, 26.5661, 2.30969e-10, 2.12, 0.0243494
 339.01, 1.66939, 0.239804, 388.955, 347.332, 22.0003, 21.439, 0.0366003, 26.5296, 1.40124e-10, 2.08345, 0.024373
 340.51, 1.63281, 0.234549, 389.037, 348.065, 22.0192, 21.4504, 0.0365699, 26.493, 8.42232e-11, 2.04688, 0.0243966
 342.01, 1.59619, 0.229288, 389.123, 348.808, 22.0384, 21.4618, 0.0365395, 26.4564, 5.01406e-11, 2.01026, 0.0244223
 343.51, 1.55953, 0.224022, 389.214, 349.56, 22.0577, 21.4734, 0.0365091, 26.4197, 2.95571e-11, 1.97361, 0.02445
 345.01, 1.52283, 0.218751, 389.298, 350.322, 22.0772, 21.4852, 0.0364786, 26.383, 1.72472e-11, 1.93692, 0.0244715
 346.51, 1.4861, 0.213474, 389.385, 351.094, 22.0969, 21.4971, 0.0364481, 26.3463, 9.95918e-12, 1.90019, 0.0244956
 348.01, 1.44933, 0.208192, 389.481, 351.877, 22.1168, 21.5092, 0.0364176, 26.3095, 5.68891e-12, 1.86343, 0.0245231
 349.51, 1.41252, 0.202905, 389.571, 352.671, 22.1368, 21.5214, 0.036387, 26.2727, 3.21355e-12, 1.82662, 0.0245465
 351.01, 1.37568, 0.197612, 389.664, 353.478, 22.157, 21.5338, 0.0363564, 26.2359, 1.79444e-12, 1.78979, 0.0245693
 352.51, 1.3388, 0.192315, 389.757, 354.297, 22.1775, 21.5463, 0.0363258, 26.199, 9.90124e-13, 1.75292, 0.02459
 354.01, 1.3019, 0.187014, 389.853, 355.129, 22.1981, 21.559, 0.0362951, 26.1621, 5.39626e-13, 1.71601, 0.0246126
 355.51, 1.26496, 0.181707, 389.953, 355.974, 22.2188, 21.5718, 0.0362645, 26.1252, 2.90369e-13, 1.67908, 0.0246346
 357.01, 1.22798, 0.176396, 390.053, 356.834, 22.2398, 21.5848, 0.0362338, 26.0882, 1.54193e-13, 1.64211, 0.0246555
 358.51, 1.19098, 0.171081, 390.158, 357.708, 22.2609, 21.5979, 0.036203, 26.0512, 8.07652e-14, 1.60511, 0.0246762
 360.01, 1.15394, 0.165761, 390.267, 358.598, 22.2822, 21.6112, 0.0361723, 26.0142, 4.17071e-14, 1.56808, 0.0246992
 361.51, 1.11687, 0.160435, 390.38, 359.504, 22.3037, 21.6246, 0.0361415, 25.9771, 2.1222e-14, 1.53101, 0.0247227
 363.01, 1.07977, 0.155105, 390.499, 360.428, 22.3254, 21.6382, 0.0361107, 25.94, 1.06341e-14, 1.49392, 0.0247429
 364.51, 1.04263, 0.149771, 390.618, 361.369, 22.3473, 21.6519, 0.0360798, 25.9029, 5.24439e-15, 1.45678, 0.024765
 366.01, 1.00546, 0.144432, 390.739, 362.329, 22.3693, 21.6658, 0.036049, 25.8657, 2.54385e-15, 1.41962, 0.0247824
 367.51, 0.968271, 0.139089, 390.866, 363.309, 22.3915, 21.6799, 0.0360181, 25.8286, 1.21285e-15, 1.38243, 0.0248022
 369.01, 0.931048, 0.133742, 391.002, 364.309, 22.4139, 21.6941, 0.0359872, 25.7913, 5.68002e-16, 1.34522, 0.0248224
 370.51, 0.893797, 0.128391, 391.139, 365.33, 22.4365, 21.7084, 0.0359563, 25.7541, 2.61122e-16, 1.30797, 0.0248392
 372.01, 0.856524, 0.123037, 391.282, 366.374, 22.4592, 21.7229, 0.0359253, 25.7168, 1.17779e-16, 1.2707, 0.0248538
 373.51, 0.819226, 0.117679, 391.435, 367.441, 22.4822, 21.7376, 0.0358943, 25.6795, 5.21202e-17, 1.2334, 0.0248705
 375.01, 0.781907, 0.112319, 391.592, 368.533, 22.5053, 21.7524, 0.0358633, 25.6422, 2.26545e-17, 1.19609, 0.0248829
 376.51, 0.744569, 0.106955, 391.763, 369.65, 22.5286, 21.7674, 0.0358323, 25.6049, 9.70959e-18, 1.15875, 0.0248964
 378.01, 0.707208, 0.101588, 391.946, 370.793, 22.552, 21.7826, 0.0358013, 25.5675, 4.1547e-18, 1.1214, 0.0249127
 379.51, 0.669832, 0.0962195, 392.131, 371.966, 22.5757, 21.7978, 0.0357703, 25.5301, 1.83014e-18, 1.08402, 0.02492
 381.01, 0.632467, 0.0908521, 392.229, 369.947, 22.5995, 21.8133, 0.0357392, 25.4928, 8.81411e-19, 1.04666, 0.0249109
 382.51, 0.595109, 0.0854857, 392.336, 372.335, 22.6235, 21.8289, 0.0357082, 25.4554, 5.10828e-19, 1.0093, 0.0249041
 384.01, 0.557759, 0.0801205, 392.454, 373.305, 22.6477, 21.8447, 0.0356772, 25.4181, 3.78535e-19, 0.971945, 0.024898
 385.51, 0.520415, 0.0747562, 392.586, 375.481, 22.6721, 21.8606, 0.0356462, 25.3807, 3.41982e-19, 0.934599, 0.0248896
 387.01, 0.483081, 0.0693932, 392.736, 376.386, 22.6966, 21.8767, 0.0356152, 25.3434, 3.2819e-19, 0.897262, 0.0248817
 388.51, 0.445767, 0.0640331, 392.891, 378.224, 22.7213, 21.8929, 0.0355842, 25.3061, 3.14496e-19, 0.859944, 0.0248659
 390.01, 0.408484, 0.0586776, 393.06, 380.999, 22.7462, 21.9093, 0.0355532, 25.2688, 3.01035e-19, 0.822655, 0.0248429
 391.51, 0.371246, 0.0533284, 393.308, 383.231, 22.7713, 21.9259, 0.0355223, 25.2315, 2.87493e-19, 0.78541, 0.0248169
 393.01, 0.334076, 0.0479891, 393.465, 383.871, 22.7965, 21.9426, 0.0354914, 25.1943, 2.73686e-19, 0.748228, 0.0247657
 394.51, 0.296988, 0.0426615, 393.833, 385.512, 22.8219, 21.9594, 0.0354606, 25.1573, 2.59935e-19, 0.71113, 0.0247188
 396.01, 0.260008, 0.0373494, 394.042, 388.106, 22.8475, 21.9765, 0.0354299, 25.1202, 2.46511e-19, 0.674129, 0.0246328
 397.51, 0.22309, 0.0320463, 394.653, 389.657, 22.8733, 21.9936, 0.0353992, 25.0833, 2.32837e-19, 0.637204, 0.0246008
 399.01, 0.186249, 0.0267541, 395.146, 391.306, 22.8992, 22.011, 0.0353686, 25.0465, 2.19505e-19, 0.600343, 0.02453
 400.51, 0.14963, 0.0214939, 395.677, 392.982, 22.9254, 22.0285, 0.0353381, 25.0098, 2.05913e-19, 0.56369, 0.0243808
 402.01, 0.113141, 0.0162525, 396.507, 394.632, 22.9516, 22.0462, 0.0353078, 24.9733, 1.92603e-19, 0.527181, 0.0242951
 403.51, 0.0768466, 0.0110388, 397.051, 396.385, 22.9781, 22.064, 0.0352776, 24.937, 1.7932e-19, 0.490835, 0.0241017
 405.01, 0.0409086, 0.00587641, 398.011, 398.118, 23.0047, 22.082, 0.0352478, 24.901, 1.66027e-19, 0.454855, 0.0239116
 406.51, 0.00518463, 0.000744758, 399.174, 399.908, 23.0316, 22.1001, 0.0352181, 24.8652, 1.53077e-19, 0.419095, 0.0237622
 408.01,-0.0301617,-0.00433265, 399.983, 401.651, 23.0586, 22.1184, 0.0351886, 24.8298, 1.39948e-19, 0.383654, 0.0233833
 409.51,-0.0649689,-0.00933261, 401.424, 403.548, 23.0857, 22.1369, 0.0351597, 24.7949, 1.27149e-19, 0.348791, 0.0231355
 411.01,-0.0994306,-0.0142829, 403.09, 405.549, 23.1131, 22.1555, 0.035131, 24.7604, 1.14593e-19, 0.314268, 0.022885
 412.51,-0.133214,-0.0191358, 404.331, 407.147, 23.1406, 22.1743, 0.0351028, 24.7264, 1.02352e-19, 0.280319, 0.0222118
 414.01,-0.166171,-0.0238699, 406.49, 409.372, 23.1683, 22.1932, 0.0350754, 24.6934, 9.00564e-20, 0.247284, 0.0218694
 415.51,-0.198582,-0.0285257, 408.946, 411.794, 23.1961, 22.2123, 0.0350484, 24.6609, 7.82728e-20, 0.214772, 0.0214613
 417.01,-0.229847,-0.0330168, 410.966, 412.869, 23.2241, 22.2316, 0.0350221, 24.6293, 6.67468e-20, 0.183198, 0.0202215
 418.51,-0.259657,-0.037299, 414.307, 415.912, 23.2523, 22.251, 0.0349973, 24.5994, 5.57464e-20, 0.153286, 0.0197471
 420.01,-0.288697,-0.0414706, 418.156, 419.469, 23.2807, 22.2706, 0.0349731, 24.5702, 4.50711e-20, 0.124095, 0.0191347
 421.51,-0.316551,-0.0454716, 422.635, 423.662, 23.3092, 22.2903, 0.0349498, 24.5421, 3.49005e-20, 0.0960272, 0.0182581
 423.01,-0.342819,-0.049245, 428.151, 428.904, 23.3379, 22.3102, 0.0349277, 24.5156, 2.52316e-20, 0.0694777, 0.0171037
 424.51,-0.366987,-0.0527167, 435.465, 435.961, 23.3668, 22.3303, 0.0349073, 24.4911, 1.63105e-20, 0.0449336, 0.0155648
 426.01,-0.388232,-0.0557685, 446.531, 446.794, 23.3959, 22.3505, 0.0348892, 24.4693, 8.38792e-21, 0.0231453, 0.013358
 427.51,-0.404458,-0.0580993, 469.046, 469.116, 23.4251, 22.3709, 0.0348749, 24.452, 2.12375e-21, 0.00584086, 0.0091103
 429.01,-0.40821,-0.0586382, 527.755, 548.895, 23.4545, 22.3914, 0.03487, 24.4461, 0.0000000E+000, 0.0000000E+000, 0.0000000E+000
 430.51,-0.40821,-0.0586382, 545.261, 566.5, 23.4841, 22.4121, 0.03487, 24.4461, 0.0000000E+000, 0.0000000E+000, 0.0000000E+000
 432.01,-0.40821,-0.0586382, 554.415, 575.709, 23.5138, 22.4329, 0.03487, 24.4461, 0.0000000E+000, 0.0000000E+000, 0.0000000E+000
 433.51,-0.40821,-0.0586382, 560.507, 581.832, 23.5437, 22.454, 0.03487, 24.4461, 0.0000000E+000, 0.0000000E+000, 0.0000000E+000
 435.01,-0.40821,-0.0586382, 565.001, 586.353, 23.5738, 22.4751, 0.03487, 24.4461, 0.0000000E+000, 0.0000000E+000, 0.0000000E+000
 436.51,-0.40821,-0.0586382, 568.537, 589.907, 23.604, 22.4965, 0.03487, 24.4461, 0.0000000E+000, 0.0000000E+000, 0.0000000E+000
 438.01,-0.40821,-0.0586382, 571.43, 592.815, 23.6344, 22.518, 0.03487, 24.4461, 0.0000000E+000, 0.0000000E+000, 0.0000000E+000
 439.51,-0.40821,-0.0586382, 573.868, 595.263, 23.665, 22.5396, 0.03487, 24.4461, 0.0000000E+000, 0.0000000E+000, 0.0000000E+000
 441.01,-0.40821,-0.0586382, 575.958, 597.368, 23.6957, 22.5614, 0.03487, 24.4461, 0.0000000E+000, 0.0000000E+000, 0.0000000E+000
 442.51,-0.40821,-0.0586382, 577.787, 599.202, 23.7267, 22.5834, 0.03487, 24.4461, 0.0000000E+000, 0.0000000E+000, 0.0000000E+000
 444.01,-0.40821,-0.0586382, 579.394, 600.824, 23.7578, 22.6055, 0.03487, 24.4461, 0.0000000E+000, 0.0000000E+000, 0.0000000E+000
 445.51,-0.40821,-0.0586382, 580.84, 602.274, 23.789, 22.6278, 0.03487, 24.4461, 0.0000000E+000, 0.0000000E+000, 0.0000000E+000
 447.01,-0.40821,-0.0586382, 582.134, 603.584, 23.8205, 22.6503, 0.03487, 24.4461, 0.0000000E+000, 0.0000000E+000, 0.0000000E+000
 448.51,-0.40821,-0.0586382, 583.322, 604.776, 23.8521, 22.6729, 0.03487, 24.4461, 0.0000000E+000, 0.0000000E+000, 0.0000000E+000
 450.01,-0.40821,-0.0586382, 584.412, 605.867, 23.8838, 22.6957, 0.03487, 24.4461, 0.0000000E+000, 0.0000000E+000, 0.0000000E+000
 451.51,-0.40821,-0.0586382, 585.413, 606.873, 23.9158, 22.7186, 0.03487, 24.4461, 0.0000000E+000, 0.0000000E+000, 0.0000000E+000
 453.01,-0.40821,-0.0586382, 586.335, 607.804, 23.9479, 22.7417, 0.03487, 24.4461, 0.0000000E+000, 0.0000000E+000, 0.0000000E+000
 454.51,-0.40821,-0.0586382, 587.19, 608.67, 23.9802, 22.7649, 0.03487, 24.4461, 0.0000000E+000, 0.0000000E+000, 0.0000000E+000
 456.01,-0.40821,-0.0586382, 588, 609.478, 24.0127, 22.7884, 0.03487, 24.4461, 0.0000000E+000, 0.0000000E+000, 0.0000000E+000
 457.51,-0.40821,-0.0586382, 588.759, 610.234, 24.0453, 22.8119, 0.03487, 24.4461, 0.0000000E+000, 0.0000000E+000, 0.0000000E+000
 459.01,-0.40821,-0.0586382, 589.471, 610.944, 24.0781, 22.8357, 0.03487, 24.4461, 0.0000000E+000, 0.0000000E+000, 0.0000000E+000
 460.51,-0.40821,-0.0586382, 590.12, 611.613, 24.1111, 22.8595, 0.03487, 24.4461, 0.0000000E+000, 0.0000000E+000, 0.0000000E+000
 462.01,-0.40821,-0.0586382, 590.759, 612.244, 24.1442, 22.8836, 0.03487, 24.4461, 0.0000000E+000, 0.0000000E+000, 0.0000000E+000
 463.51,-0.40821,-0.0586382, 591.35, 612.843, 24.1776, 22.9078, 0.03487, 24.4461, 0.0000000E+000, 0.0000000E+000, 0.0000000E+000
 465.01,-0.40821,-0.0586382, 591.913, 613.409, 24.2111, 22.9322, 0.03487, 24.4461, 0.0000000E+000, 0.0000000E+000, 0.0000000E+000
 466.51,-0.40821,-0.0586382, 592.464, 613.948, 24.2448, 22.9567, 0.03487, 24.4461, 0.0000000E+000, 0.0000000E+000, 0.0000000E+000
 468.01,-0.40821,-0.0586382, 592.961, 614.464, 24.2786, 22.9814, 0.03487, 24.4461, 0.0000000E+000, 0.0000000E+000, 0.0000000E+000
 469.51,-0.40821,-0.0586382, 593.467, 614.957, 24.3127, 23.0062, 0.03487, 24.4461, 0.0000000E+000, 0.0000000E+000, 0.0000000E+000
 471.01,-0.40821,-0.0586382, 593.921, 615.428, 24.3469, 23.0313, 0.03487, 24.4461, 0.0000000E+000, 0.0000000E+000, 0.0000000E+000
 472.51,-0.40821,-0.0586382, 594.374, 615.878, 24.3813, 23.0564, 0.03487, 24.4461, 0.0000000E+000, 0.0000000E+000, 0.0000000E+000
 474.01,-0.40821,-0.0586382, 594.803, 616.311, 24.416, 23.0818, 0.03487, 24.4461, 0.0000000E+000, 0.0000000E+000, 0.0000000E+000
 475.51,-0.40821,-0.0586382, 595.205, 616.728, 24.4508, 23.1073, 0.03487, 24.4461, 0.0000000E+000, 0.0000000E+000, 0.0000000E+000
 477.01,-0.40821,-0.0586382, 595.617, 617.124, 24.4858, 23.1329, 0.03487, 24.4461, 0.0000000E+000, 0.0000000E+000, 0.0000000E+000
 478.51,-0.40821,-0.0586382, 595.991, 617.511, 24.521, 23.1587, 0.03487, 24.4461, 0.0000000E+000, 0.0000000E+000, 0.0000000E+000
 480.01,-0.40821,-0.0586382, 596.367, 617.878, 24.5563, 23.1847, 0.03487, 24.4461, 0.0000000E+000, 0.0000000E+000, 0.0000000E+000
 481.51,-0.40821,-0.0586382, 596.72, 618.236, 24.5919, 23.2109, 0.03487, 24.4461, 0.0000000E+000, 0.0000000E+000, 0.0000000E+000
 483.01,-0.40821,-0.0586382, 597.052, 618.58, 24.6277, 23.2372, 0.03487, 24.4461, 0.0000000E+000, 0.0000000E+000, 0.0000000E+000
 484.51,-0.40821,-0.0586382, 597.403, 618.912, 24.6638, 23.2637, 0.03487, 24.4461, 0.0000000E+000, 0.0000000E+000, 0.0000000E+000
 486.01,-0.40821,-0.0586382, 597.711, 619.232, 24.7, 23.2903, 0.03487, 24.4461, 0.0000000E+000, 0.0000000E+000, 0.0000000E+000
 487.51,-0.40821,-0.0586382, 598.016, 619.548, 24.7365, 23.3171, 0.03487, 24.4461, 0.0000000E+000, 0.0000000E+000, 0.0000000E+000
 489.01,-0.40821,-0.0586382, 598.318, 619.847, 24.7732, 23.3441, 0.03487, 24.4461, 0.0000000E+000, 0.0000000E+000, 0.0000000E+000
 490.51,-0.40821,-0.0586382, 598.618, 620.14, 24.8101, 23.3713, 0.03487, 24.4461, 0.0000000E+000, 0.0000000E+000, 0.0000000E+000
 492.01,-0.40821,-0.0586382, 598.891, 620.423, 24.8473, 23.3986, 0.03487, 24.4461, 0.0000000E+000, 0.0000000E+000, 0.0000000E+000
 493.51,-0.40821,-0.0586382, 599.158, 620.701, 24.8848, 23.4261, 0.03487, 24.4461, 0.0000000E+000, 0.0000000E+000, 0.0000000E+000
 495.01,-0.40821,-0.0586382, 599.445, 620.967, 24.9225, 23.4537, 0.03487, 24.4461, 0.0000000E+000, 0.0000000E+000, 0.0000000E+000
 496.51,-0.40821,-0.0586382, 599.697, 621.227, 24.9604, 23.4816, 0.03487, 24.4461, 0.0000000E+000, 0.0000000E+000, 0.0000000E+000
 498.01,-0.40821,-0.0586382, 599.945, 621.485, 24.9987, 23.5096, 0.03487, 24.4461, 0.0000000E+000, 0.0000000E+000, 0.0000000E+000
 499.51,-0.40821,-0.0586382, 600.181, 621.729, 25.0372, 23.5378, 0.03487, 24.4461, 0.0000000E+000, 0.0000000E+000, 0.0000000E+000
 500,-0.40821,-0.0586382, 600.259, 621.81, 25.05, 23.5471, 0.03487, 24.4461, 0.0000000E+000, 0.0000000E+000, 0.0000000E+000