File: PMMA/Calibration_Results/NIST_FSRI/All_Props/UMET_GP[NIST_FSRI]_Gasification_q50_R3_Mass.csv
s,kg/m2,,C,C,C,C,m,kg/m2,kg/m2,kg/m2,kg/m2/s
Time,"SD","MF","TW1","TSB1","TAL1","TB1","DX1","SD1","SD_11","SD_12","BR1"
 0.0000000E+000, 6.96099, 0.999927, 20.9, 20.9, 20.9, 20.9, 0.041011, 31.8153, 7.3692, 0.0000000E+000, 0.0000000E+000
 1.5, 6.95941, 0.999699, 67.2066, 20.8969, 20.9, 20.9, 0.0410104, 31.8145, 7.34877, 0.0196524, 0.00256098
 3.01, 6.94611, 0.997789, 94.9627, 20.8925, 20.9, 20.9, 0.0410006, 31.8029, 7.04133, 0.315415, 0.010092
 4.51, 6.93215, 0.995784, 117.984, 20.8896, 20.9, 20.9, 0.0409887, 31.7885, 6.66438, 0.678034, 0.00868395
 6.01, 6.92068, 0.994136, 138.259, 20.891, 20.9, 20.9, 0.0409788, 31.7767, 6.35391, 0.976711, 0.00726672
 7.51, 6.9107, 0.992703, 155.97, 20.9053, 20.9, 20.9, 0.0409704, 31.7665, 6.08572, 1.23471, 0.00635688
 9.01, 6.90176, 0.991418, 171.583, 20.9564, 20.9, 20.9, 0.0409628, 31.7575, 5.84698, 1.46438, 0.00580742
 10.51, 6.89347, 0.990227, 185.568, 21.0556, 20.9, 20.9, 0.0409558, 31.7491, 5.62621, 1.67675, 0.00538807
 12.01, 6.88571, 0.989113, 198.236, 21.2315, 20.9, 20.9, 0.0409493, 31.7413, 5.42021, 1.87493, 0.00507781
 13.51, 6.87834, 0.988054, 209.821, 21.5135, 20.9, 20.9, 0.0409431, 31.7338, 5.22464, 2.06307, 0.00483833
 15.01, 6.87129, 0.987042, 220.497, 21.9261, 20.9, 20.9, 0.0409372, 31.7267, 5.03811, 2.2425, 0.00463096
 16.51, 6.86451, 0.986067, 230.388, 22.4061, 20.9, 20.9, 0.0409315, 31.7199, 4.85901, 2.41478, 0.00447501
 18, 6.85792, 0.985121, 239.557, 23.0115, 20.9, 20.9, 0.040926, 31.7133, 4.68673, 2.58046, 0.00435684
 19.5, 6.85145, 0.984191, 248.087, 23.7946, 20.9, 20.9, 0.0409206, 31.7069, 4.52006, 2.74067, 0.00430038
 21, 6.84497, 0.98326, 256.016, 24.5115, 20.9, 20.9, 0.0409152, 31.7004, 4.35768, 2.89659, 0.00434598
 22.5, 6.83826, 0.982297, 263.262, 25.7094, 20.9, 20.9, 0.0409097, 31.6937, 4.19961, 3.048, 0.00455035
 24, 6.83102, 0.981258, 269.72, 26.9156, 20.9, 20.9, 0.0409037, 31.6866, 4.04542, 3.19507, 0.00498553
 25.5, 6.82286, 0.980084, 275.259, 27.7703, 20.9, 20.9, 0.0408971, 31.6786, 3.89461, 3.33789, 0.00569776
 27, 6.81336, 0.97872, 279.786, 29.0922, 20.9, 20.9, 0.0408894, 31.6694, 3.74674, 3.47651, 0.00666193
 28.5, 6.80225, 0.977124, 283.315, 30.8573, 20.9, 20.9, 0.0408804, 31.6585, 3.60135, 3.61107, 0.00777552
 30, 6.78944, 0.975284, 285.974, 31.8967, 20.9, 20.9, 0.0408699, 31.646, 3.45806, 3.74184, 0.00891233
 31.5, 6.77498, 0.973207, 287.955, 33.8442, 20.9, 20.9, 0.0408581, 31.6318, 3.3165, 3.8692, 0.00998188
 33, 6.75902, 0.970914, 289.443, 35.4783, 20.9, 20.9, 0.040845, 31.6161, 3.17635, 3.99363, 0.010946
 34.5, 6.74173, 0.96843, 290.583, 37.3844, 20.9, 20.9, 0.0408307, 31.599, 3.03729, 4.11561, 0.0118011
 36, 6.72325, 0.965776, 291.478, 39.018, 20.9, 20.9, 0.0408155, 31.5807, 2.899, 4.23562, 0.0125583
 37.5, 6.70372, 0.962971, 292.197, 40.3086, 20.9, 20.9, 0.0407994, 31.5614, 2.76118, 4.35407, 0.0132314
 39, 6.68326, 0.960031, 292.793, 42.2184, 20.9, 20.9, 0.0407824, 31.5411, 2.62358, 4.47136, 0.0138381
 40.5, 6.66194, 0.956969, 293.294, 43.8897, 20.9, 20.9, 0.0407648, 31.5199, 2.48599, 4.58777, 0.0143859
 42, 6.63985, 0.953797, 293.723, 46.4094, 20.9, 20.9, 0.0407465, 31.4979, 2.34828, 4.70351, 0.0148835
 43.51, 6.61707, 0.950524, 294.093, 47.9845, 20.9, 20.9, 0.0407275, 31.4752, 2.21, 4.81905, 0.015333
 45.01, 6.59365, 0.947159, 294.429, 49.8126, 20.9, 20.9, 0.040708, 31.4518, 2.07169, 4.93395, 0.0157489
 46.51, 6.56966, 0.943713, 294.721, 51.1764, 20.9, 20.9, 0.0406881, 31.4279, 1.93414, 5.0476, 0.0161155
 48.01, 6.54515, 0.940193, 294.982, 53.9854, 20.9, 20.9, 0.0406678, 31.4034, 1.79731, 5.16, 0.0164389
 49.51, 6.52021, 0.93661, 295.223, 55.0112, 20.9, 20.9, 0.040647, 31.3786, 1.66182, 5.27062, 0.0167246
 51.01, 6.49487, 0.932969, 295.448, 56.522, 20.9, 20.9, 0.040626, 31.3533, 1.5284, 5.37875, 0.0169735
 52.51, 6.4692, 0.929283, 295.649, 59.2973, 20.9, 20.9, 0.0406046, 31.3277, 1.3979, 5.48364, 0.0171742
 54.01, 6.44327, 0.925558, 295.834, 60.8718, 20.9, 20.9, 0.040583, 31.3018, 1.27121, 5.58444, 0.017335
 55.51, 6.41715, 0.921805, 296.007, 63.2406, 20.9, 20.9, 0.0405613, 31.2757, 1.14924, 5.68031, 0.0174569
 57.01, 6.39087, 0.91803, 296.169, 64.3193, 20.9, 20.9, 0.0405394, 31.2494, 1.03286, 5.77043, 0.0175455
 58.51, 6.36448, 0.91424, 296.331, 67.2394, 20.9, 20.9, 0.0405174, 31.223, 0.922846, 5.85407, 0.0176131
 60.01, 6.33802, 0.910439, 296.478, 68.6065, 20.9, 20.9, 0.0404954, 31.1966, 0.819884, 5.93058, 0.0176481
 61.51, 6.31154, 0.906634, 296.615, 71.5242, 20.9, 20.9, 0.0404733, 31.1701, 0.724491, 5.99949, 0.0176604
 63.01, 6.28505, 0.90283, 296.744, 74.7939, 20.9, 20.9, 0.0404512, 31.1436, 0.637019, 6.06048, 0.0176553
 64.51, 6.25858, 0.899028, 296.867, 77.0297, 20.9, 20.9, 0.0404292, 31.1171, 0.55763, 6.11339, 0.0176404
 66.01, 6.23214, 0.895229, 296.986, 77.6033, 20.9, 20.9, 0.0404071, 31.0907, 0.486294, 6.15828, 0.017623
 67.51, 6.20572, 0.891434, 297.099, 81.8924, 20.9, 20.9, 0.0403851, 31.0643, 0.422798, 6.19536, 0.0176051
 69.01, 6.17933, 0.887643, 297.208, 84.2509, 20.9, 20.9, 0.0403631, 31.0379, 0.366768, 6.22499, 0.0175921
 70.51, 6.15294, 0.883853, 297.314, 86.3567, 20.9, 20.9, 0.0403411, 31.0115, 0.317704, 6.24767, 0.0175909
 72.01, 6.12653, 0.880059, 297.429, 89.0121, 20.9, 20.9, 0.0403191, 30.9851, 0.275021, 6.26395, 0.0176124
 73.5, 6.10009, 0.876261, 297.528, 91.9386, 20.9, 20.9, 0.0402973, 30.9588, 0.238313, 6.2744, 0.0176342
 75, 6.07361, 0.872457, 297.625, 93.8815, 20.9, 20.9, 0.0402752, 30.9324, 0.206448, 6.27979, 0.0176667
 76.5, 6.04706, 0.868644, 297.72, 96.9707, 20.9, 20.9, 0.0402531, 30.9058, 0.179064, 6.28064, 0.0177143
 78, 6.02043, 0.864819, 297.812, 99.6143, 20.9, 20.9, 0.0402309, 30.8792, 0.155574, 6.27751, 0.0177715
 79.5, 5.99371, 0.86098, 297.903, 102.538, 20.9, 20.9, 0.0402087, 30.8525, 0.135442, 6.27094, 0.0178386
 81, 5.96688, 0.857125, 297.991, 105.143, 20.9, 20.9, 0.0401863, 30.8257, 0.118187, 6.26138, 0.0179145
 82.5, 5.93992, 0.853253, 298.079, 107.247, 20.9, 20.9, 0.0401639, 30.7988, 0.10339, 6.24924, 0.0180011
 84, 5.91282, 0.849361, 298.165, 110.111, 20.9, 20.9, 0.0401413, 30.7717, 0.0906843, 6.23487, 0.0180946
 85.5, 5.88558, 0.845448, 298.25, 113.114, 20.9, 20.9, 0.0401186, 30.7445, 0.0797573, 6.21859, 0.0181928
 87, 5.85819, 0.841513, 298.334, 115.114, 20.9, 20.9, 0.0400958, 30.7171, 0.0703412, 6.20064, 0.0182954
 88.5, 5.83064, 0.837555, 298.416, 117.406, 20.9001, 20.9, 0.0400729, 30.6896, 0.062209, 6.18124, 0.0184024
 90, 5.80292, 0.833573, 298.508, 121.504, 20.9001, 20.9, 0.0400498, 30.6619, 0.0551688, 6.16059, 0.0185262
 91.5, 5.775, 0.829563, 298.594, 123.575, 20.9001, 20.9, 0.0400266, 30.634, 0.0490585, 6.13882, 0.0186478
 93, 5.74691, 0.825528, 298.675, 124.931, 20.9001, 20.9, 0.0400032, 30.6059, 0.0437417, 6.11607, 0.0187655
 94.5, 5.71864, 0.821467, 298.755, 127.267, 20.9001, 20.9, 0.0399796, 30.5777, 0.0391029, 6.09247, 0.0188835
 96, 5.6902, 0.817381, 298.833, 128.714, 20.9002, 20.9, 0.039956, 30.5493, 0.0350452, 6.06812, 0.019003
 97.5, 5.66157, 0.813269, 298.912, 131.684, 20.9002, 20.9, 0.0399321, 30.5207, 0.0314862, 6.04308, 0.0191264
 99, 5.63276, 0.80913, 298.99, 134.635, 20.9002, 20.9, 0.0399082, 30.4919, 0.0283567, 6.01742, 0.0192501
 100.5, 5.60376, 0.804964, 299.067, 135.984, 20.9003, 20.9, 0.039884, 30.4629, 0.0255977, 5.99121, 0.0193732
 102, 5.57457, 0.800772, 299.143, 139.243, 20.9003, 20.9, 0.0398597, 30.4338, 0.0231592, 5.9645, 0.0194957
 103.5, 5.54521, 0.796553, 299.218, 141.243, 20.9004, 20.9, 0.0398353, 30.4044, 0.0209988, 5.93732, 0.0196184
 105, 5.51565, 0.792308, 299.293, 143.216, 20.9004, 20.9, 0.0398107, 30.3749, 0.01908, 5.90972, 0.0197415
 106.5, 5.48591, 0.788036, 299.369, 144.445, 20.9005, 20.9001, 0.0397859, 30.3452, 0.017372, 5.88172, 0.0198689
 108, 5.45598, 0.783737, 299.443, 148.162, 20.9005, 20.9001, 0.039761, 30.3153, 0.015848, 5.85335, 0.0199934
 109.5, 5.42587, 0.779411, 299.517, 149.521, 20.9006, 20.9001, 0.0397359, 30.2852, 0.0144853, 5.82462, 0.0201168
 111, 5.39557, 0.775059, 299.589, 150.671, 20.9007, 20.9001, 0.0397107, 30.255, 0.0132643, 5.79558, 0.020239
 112.5, 5.36509, 0.77068, 299.663, 152.7, 20.9008, 20.9001, 0.0396853, 30.2245, 0.0121678, 5.76622, 0.0203626
 114, 5.3344, 0.766272, 299.746, 157.444, 20.9009, 20.9001, 0.0396598, 30.1939, 0.0111812, 5.73656, 0.0204991
 115.5, 5.30352, 0.761836, 299.82, 159.439, 20.9011, 20.9001, 0.0396341, 30.163, 0.0102919, 5.7066, 0.0206273
 117, 5.27246, 0.757374, 299.892, 161.412, 20.9012, 20.9002, 0.0396082, 30.132, 0.00948855, 5.67637, 0.0207503
 118.5, 5.24121, 0.752885, 299.963, 163.364, 20.9014, 20.9002, 0.0395822, 30.1008, 0.00876165, 5.64588, 0.0208718
 120, 5.20978, 0.748371, 300.033, 165.296, 20.9015, 20.9002, 0.039556, 30.0694, 0.00810273, 5.61514, 0.0209915
 121.5, 5.17817, 0.74383, 300.102, 167.207, 20.9017, 20.9002, 0.0395297, 30.0378, 0.00750439, 5.58416, 0.0211107
 123, 5.14639, 0.739264, 300.171, 169.099, 20.9019, 20.9003, 0.0395033, 30.006, 0.00696015, 5.55295, 0.0212303
 124.5, 5.11442, 0.734672, 300.241, 170.971, 20.9021, 20.9003, 0.0394766, 29.9741, 0.00646432, 5.52151, 0.021352
 126, 5.08227, 0.730054, 300.311, 172.824, 20.9024, 20.9003, 0.0394499, 29.942, 0.00601188, 5.48984, 0.0214731
 127.5, 5.04994, 0.72541, 300.379, 174.658, 20.9026, 20.9004, 0.039423, 29.9097, 0.0055984, 5.45795, 0.0215922
 129, 5.01743, 0.72074, 300.448, 176.473, 20.9029, 20.9004, 0.0393959, 29.8772, 0.00521996, 5.42585, 0.0217098
 130.5, 4.98475, 0.716045, 300.515, 178.27, 20.9032, 20.9005, 0.0393687, 29.8445, 0.00487308, 5.39354, 0.0218259
 132, 4.95189, 0.711326, 300.582, 180.049, 20.9035, 20.9006, 0.0393413, 29.8117, 0.0045547, 5.36104, 0.0219418
 133.5, 4.91886, 0.706581, 300.649, 181.81, 20.9039, 20.9006, 0.0393138, 29.7787, 0.00426206, 5.32833, 0.0220582
 135, 4.88566, 0.701811, 300.717, 183.554, 20.9043, 20.9007, 0.0392862, 29.7455, 0.00399274, 5.29542, 0.0221779
 136.5, 4.85227, 0.697015, 300.785, 185.279, 20.9047, 20.9008, 0.0392584, 29.7122, 0.00374455, 5.26231, 0.0222955
 138, 4.81871, 0.692194, 300.851, 186.988, 20.9052, 20.9009, 0.0392304, 29.6786, 0.00351554, 5.22901, 0.0224113
 139.5, 4.78498, 0.687348, 300.919, 188.68, 20.9056, 20.901, 0.0392023, 29.6449, 0.00330398, 5.19552, 0.0225272
 141, 4.75105, 0.682475, 300.996, 190.354, 20.9061, 20.9011, 0.0391741, 29.611, 0.0031083, 5.16182, 0.0226557
 142.5, 4.71695, 0.677577, 301.063, 192.012, 20.9067, 20.9012, 0.0391457, 29.577, 0.00292709, 5.12793, 0.0227706
 144, 4.68268, 0.672654, 301.128, 193.653, 20.9073, 20.9013, 0.0391172, 29.5427, 0.0027591, 5.09386, 0.0228846
 145.5, 4.64824, 0.667707, 301.194, 195.278, 20.9079, 20.9014, 0.0390885, 29.5083, 0.0026032, 5.0596, 0.0229999
 147, 4.61362, 0.662733, 301.261, 196.886, 20.9085, 20.9016, 0.0390597, 29.4737, 0.00245834, 5.02515, 0.0231179
 148.5, 4.57883, 0.657736, 301.327, 198.477, 20.9093, 20.9017, 0.0390307, 29.439, 0.00232362, 4.99052, 0.0232305
 150, 4.54387, 0.652714, 301.391, 200.053, 20.91, 20.9019, 0.0390016, 29.404, 0.00219819, 4.95572, 0.0233437
 151.5, 4.50874, 0.647668, 301.456, 201.612, 20.9108, 20.9021, 0.0389723, 29.3689, 0.0020813, 4.92073, 0.0234561
 153, 4.47344, 0.642598, 301.521, 203.155, 20.9116, 20.9023, 0.038943, 29.3337, 0.00197225, 4.88557, 0.0235672
 154.5, 4.43798, 0.637503, 301.585, 204.681, 20.9125, 20.9025, 0.0389134, 29.2982, 0.00187043, 4.85024, 0.0236779
 156, 4.40235, 0.632385, 301.649, 206.192, 20.9135, 20.9027, 0.0388838, 29.2626, 0.00177527, 4.81474, 0.0237888
 157.5, 4.36655, 0.627243, 301.715, 207.686, 20.9144, 20.9029, 0.0388539, 29.2269, 0.00168624, 4.77905, 0.023906
 159, 4.33058, 0.622075, 301.781, 209.164, 20.9155, 20.9032, 0.038824, 29.1909, 0.00160289, 4.74319, 0.0240206
 160.51, 4.29443, 0.616883, 301.845, 210.636, 20.9166, 20.9034, 0.0387937, 29.1546, 0.00152427, 4.70691, 0.0241318
 162.01, 4.25813, 0.611668, 301.909, 212.081, 20.9178, 20.9037, 0.0387635, 29.1183, 0.00145104, 4.6707, 0.024242
 163.51, 4.22165, 0.606428, 301.973, 213.51, 20.919, 20.904, 0.0387331, 29.0818, 0.00138229, 4.63432, 0.0243543
 165.01, 4.18501, 0.601165, 302.036, 214.923, 20.9203, 20.9044, 0.0387026, 29.0452, 0.00131771, 4.59777, 0.0244644
 166.51, 4.1482, 0.595878, 302.1, 216.319, 20.9216, 20.9047, 0.0386719, 29.0084, 0.00125698, 4.56105, 0.0245742
 168.01, 4.11123, 0.590567, 302.163, 217.698, 20.923, 20.9051, 0.0386411, 28.9715, 0.00119985, 4.52417, 0.0246834
 169.51, 4.07409, 0.585232, 302.228, 219.061, 20.9245, 20.9055, 0.0386102, 28.9344, 0.00114604, 4.48711, 0.024798
 171.01, 4.03677, 0.57987, 302.305, 220.406, 20.926, 20.9059, 0.0385791, 28.8971, 0.00109534, 4.44987, 0.0249281
 172.51, 3.99926, 0.574483, 302.37, 221.735, 20.9276, 20.9063, 0.0385479, 28.8596, 0.00104751, 4.41243, 0.0250411
 174.01, 3.96159, 0.569071, 302.434, 223.046, 20.9293, 20.9068, 0.0385165, 28.822, 0.00100238, 4.37483, 0.02515
 175.51, 3.92376, 0.563637, 302.497, 224.34, 20.9311, 20.9073, 0.038485, 28.7842, 0.000959757, 4.33707, 0.0252586
 177.01, 3.88576, 0.558178, 302.56, 225.616, 20.9329, 20.9078, 0.0384534, 28.7462, 0.000919472, 4.29914, 0.0253694
 178.51, 3.84759, 0.552696, 302.623, 226.875, 20.9349, 20.9083, 0.0384216, 28.708, 0.000881372, 4.26104, 0.0254786
 180.01, 3.80927, 0.547191, 302.686, 228.115, 20.9368, 20.9089, 0.0383897, 28.6697, 0.000845315, 4.22278, 0.0255861
 181.51, 3.77078, 0.541662, 302.75, 229.337, 20.9389, 20.9095, 0.0383576, 28.6313, 0.000811168, 4.18435, 0.0256964
 183.01, 3.73212, 0.536109, 302.815, 230.541, 20.9411, 20.9101, 0.0383254, 28.5926, 0.000778808, 4.14575, 0.0258099
 184.51, 3.6933, 0.530532, 302.879, 231.726, 20.9433, 20.9108, 0.0382931, 28.5538, 0.000748122, 4.10698, 0.02592
 186.01, 3.65431, 0.524931, 302.942, 232.892, 20.9457, 20.9115, 0.0382606, 28.5149, 0.000719005, 4.06805, 0.0260284
 187.51, 3.61516, 0.519307, 303.005, 234.039, 20.9481, 20.9122, 0.038228, 28.4758, 0.00069136, 4.02895, 0.0261343
 189.01, 3.57585, 0.513661, 303.067, 235.167, 20.9506, 20.913, 0.0381953, 28.4365, 0.000665094, 3.9897, 0.0262387
 190.51, 3.53639, 0.507993, 303.13, 236.276, 20.9532, 20.9138, 0.0381624, 28.397, 0.000640125, 3.95028, 0.0263428
 192.01, 3.49677, 0.502301, 303.193, 237.366, 20.9559, 20.9146, 0.0381294, 28.3574, 0.000616374, 3.91071, 0.0264503
 193.51, 3.45699, 0.496587, 303.256, 238.435, 20.9587, 20.9155, 0.0380963, 28.3177, 0.000593766, 3.87098, 0.0265542
 195.01, 3.41705, 0.49085, 303.321, 239.485, 20.9616, 20.9165, 0.0380631, 28.2778, 0.000572235, 3.83109, 0.0266633
 196.51, 3.37695, 0.48509, 303.384, 240.515, 20.9646, 20.9174, 0.0380297, 28.2377, 0.000551715, 3.79103, 0.0267665
 198.01, 3.3367, 0.479308, 303.447, 241.526, 20.9677, 20.9184, 0.0379961, 28.1975, 0.000532148, 3.75083, 0.0268669
 199.51, 3.2963, 0.473504, 303.51, 242.516, 20.9709, 20.9195, 0.0379625, 28.1571, 0.000513478, 3.71047, 0.0269682
 201.01, 3.25575, 0.467679, 303.573, 243.487, 20.9742, 20.9206, 0.0379287, 28.1166, 0.000495653, 3.66996, 0.0270657
 202.51, 3.21505, 0.461833, 303.636, 244.439, 20.9776, 20.9217, 0.0378948, 28.0759, 0.000478626, 3.6293, 0.0271635
 204.01, 3.1742, 0.455965, 303.709, 245.37, 20.9811, 20.9229, 0.0378608, 28.0351, 0.000462348, 3.58849, 0.0272703
 205.51, 3.1332, 0.450075, 303.771, 246.283, 20.9848, 20.9242, 0.0378266, 27.9941, 0.00044678, 3.54753, 0.0273624
 207.01, 3.09206, 0.444166, 303.835, 247.177, 20.9885, 20.9255, 0.0377924, 27.953, 0.00043188, 3.50643, 0.0274595
 208.51, 3.05077, 0.438235, 303.901, 248.051, 20.9923, 20.9268, 0.037758, 27.9117, 0.00041761, 3.46518, 0.0275569
 210.01, 3.00935, 0.432285, 303.963, 248.908, 20.9963, 20.9282, 0.0377235, 27.8703, 0.000403937, 3.42379, 0.0276432
 211.51, 2.9678, 0.426316, 304.025, 249.747, 21.0004, 20.9296, 0.0376889, 27.8288, 0.000390826, 3.38228, 0.0277271
 213.01, 2.92613, 0.42033, 304.087, 250.568, 21.0046, 20.9311, 0.0376542, 27.7871, 0.000378248, 3.34064, 0.0278091
 214.51, 2.88433, 0.414326, 304.149, 251.373, 21.0089, 20.9327, 0.0376194, 27.7454, 0.000366173, 3.29887, 0.0278916
 216.01, 2.84242, 0.408305, 304.212, 252.162, 21.0133, 20.9343, 0.0375844, 27.7035, 0.000354574, 3.25698, 0.0279711
 217.51, 2.80038, 0.402267, 304.273, 252.935, 21.0179, 20.936, 0.0375494, 27.6614, 0.000343424, 3.21498, 0.0280451
 219.01, 2.75824, 0.396214, 304.335, 253.693, 21.0225, 20.9377, 0.0375143, 27.6193, 0.000332701, 3.17287, 0.0281178
 220.51, 2.71599, 0.390144, 304.4, 254.437, 21.0273, 20.9395, 0.0374791, 27.5771, 0.000322381, 3.13065, 0.0281957
 222.01, 2.67363, 0.384059, 304.463, 255.168, 21.0323, 20.9414, 0.0374439, 27.5347, 0.000312442, 3.08831, 0.0282672
 223.51, 2.63116, 0.377958, 304.525, 255.886, 21.0373, 20.9433, 0.0374085, 27.4923, 0.000302865, 3.04586, 0.0283344
 225.01, 2.58859, 0.371844, 304.587, 256.593, 21.0425, 20.9453, 0.037373, 27.4497, 0.00029363, 3.00332, 0.0283997
 226.51, 2.54593, 0.365716, 304.649, 257.289, 21.0478, 20.9473, 0.0373375, 27.4071, 0.000284721, 2.96069, 0.0284594
 228.01, 2.50318, 0.359575, 304.71, 257.975, 21.0532, 20.9495, 0.0373019, 27.3644, 0.000276119, 2.91796, 0.0285162
 229.51, 2.46035, 0.353423, 304.771, 258.652, 21.0588, 20.9517, 0.0372662, 27.3215, 0.000267811, 2.87515, 0.0285721
 231.01, 2.41743, 0.347258, 304.834, 259.322, 21.0645, 20.9539, 0.0372304, 27.2786, 0.00025978, 2.83226, 0.0286317
 232.51, 2.37444, 0.341081, 304.896, 259.984, 21.0703, 20.9562, 0.0371946, 27.2356, 0.000252013, 2.78928, 0.0286829
 234.01, 2.33135, 0.334892, 304.961, 260.64, 21.0762, 20.9586, 0.0371587, 27.1926, 0.000244496, 2.74622, 0.0287395
 235.51, 2.2882, 0.328693, 305.023, 261.291, 21.0823, 20.9611, 0.0371228, 27.1494, 0.000237217, 2.70308, 0.0287887
 237.01, 2.24496, 0.322483, 305.086, 261.938, 21.0886, 20.9637, 0.0370867, 27.1062, 0.000230165, 2.65987, 0.0288359
 238.51, 2.20165, 0.316261, 305.158, 262.582, 21.0949, 20.9663, 0.0370507, 27.0629, 0.000223328, 2.61657, 0.0288944
 240.01, 2.15826, 0.310028, 305.22, 263.223, 21.1014, 20.969, 0.0370145, 27.0195, 0.000216696, 2.5732, 0.028938
 241.51, 2.11482, 0.303787, 305.282, 263.863, 21.1081, 20.9718, 0.0369783, 26.9761, 0.00021026, 2.52977, 0.0289788
 243.01, 2.07131, 0.297538, 305.344, 264.502, 21.1149, 20.9746, 0.0369421, 26.9326, 0.00020401, 2.48628, 0.0290184
 244.51, 2.02774, 0.29128, 305.406, 265.141, 21.1218, 20.9776, 0.0369058, 26.889, 0.000197938, 2.44273, 0.029056
 246.01, 1.98412, 0.285013, 305.471, 265.781, 21.1289, 20.9806, 0.0368694, 26.8454, 0.000192036, 2.39912, 0.0290991
 247.51, 1.94042, 0.278736, 305.536, 266.423, 21.1361, 20.9837, 0.036833, 26.8017, 0.000186296, 2.35544, 0.0291433
 249.01, 1.89667, 0.272452, 305.599, 267.067, 21.1434, 20.9869, 0.0367966, 26.758, 0.00018071, 2.3117, 0.0291777
 250.51, 1.85287, 0.26616, 305.661, 267.716, 21.1509, 20.9902, 0.0367601, 26.7142, 0.000175274, 2.26792, 0.0292092
 252.01, 1.80903, 0.259862, 305.724, 268.368, 21.1586, 20.9935, 0.0367235, 26.6704, 0.000169979, 2.22409, 0.0292441
 253.51, 1.76512, 0.253555, 305.789, 269.023, 21.1663, 20.997, 0.036687, 26.6265, 0.00016482, 2.18019, 0.0292815
 255.01, 1.72117, 0.247241, 305.852, 269.685, 21.1743, 21.0005, 0.0366503, 26.5825, 0.000159792, 2.13625, 0.029311
 256.51, 1.67717, 0.240921, 305.915, 270.353, 21.1824, 21.0041, 0.0366137, 26.5385, 0.000154889, 2.09227, 0.0293414
 258.01, 1.63313, 0.234594, 305.98, 271.028, 21.1906, 21.0079, 0.036577, 26.4945, 0.000150106, 2.04824, 0.0293724
 259.51, 1.58904, 0.228261, 306.048, 271.711, 21.199, 21.0117, 0.0365403, 26.4504, 0.000145439, 2.00416, 0.0294098
 261.01, 1.54489, 0.221919, 306.115, 272.402, 21.2075, 21.0156, 0.0365035, 26.4063, 0.000140882, 1.96002, 0.029443
 262.51, 1.50069, 0.21557, 306.181, 273.105, 21.2162, 21.0196, 0.0364666, 26.3621, 0.000136432, 1.91584, 0.0294741
 264.01, 1.45645, 0.209215, 306.247, 273.817, 21.225, 21.0237, 0.0364298, 26.3179, 0.000132084, 1.87161, 0.0295012
 265.51, 1.41217, 0.202855, 306.313, 274.539, 21.234, 21.0279, 0.0363929, 26.2736, 0.000127835, 1.82734, 0.0295294
 267.01, 1.36785, 0.196488, 306.381, 275.274, 21.2431, 21.0321, 0.036356, 26.2293, 0.000123682, 1.78303, 0.0295585
 268.51, 1.32348, 0.190114, 306.45, 276.023, 21.2524, 21.0365, 0.036319, 26.1849, 0.000119621, 1.73867, 0.0295915
 270.01, 1.27907, 0.183734, 306.519, 276.785, 21.2618, 21.041, 0.036282, 26.1405, 0.000115648, 1.69427, 0.0296175
 271.51, 1.23461, 0.177349, 306.594, 277.561, 21.2714, 21.0456, 0.0362449, 26.0961, 0.00011176, 1.64983, 0.0296481
 273.01, 1.1901, 0.170954, 306.671, 278.352, 21.2812, 21.0503, 0.0362079, 26.0516, 0.000107955, 1.60532, 0.0296873
 274.51, 1.14554, 0.164553, 306.745, 279.162, 21.2911, 21.0551, 0.0361707, 26.007, 0.00010423, 1.56077, 0.0297174
 276.01, 1.10093, 0.158146, 306.818, 279.989, 21.3011, 21.06, 0.0361336, 25.9624, 0.000100581, 1.51618, 0.0297443
 277.51, 1.05629, 0.151733, 306.893, 280.835, 21.3113, 21.0649, 0.0360964, 25.9178, 9.70075e-05, 1.47155, 0.0297706
 279.01, 1.01161, 0.145315, 306.968, 281.7, 21.3217, 21.07, 0.0360591, 25.8731, 9.3506e-05, 1.42688, 0.0297945
 280.51, 0.966894, 0.138892, 307.047, 282.585, 21.3322, 21.0752, 0.0360219, 25.8284, 9.00746e-05, 1.38217, 0.029819
 282.01, 0.922137, 0.132462, 307.13, 283.493, 21.3429, 21.0806, 0.0359846, 25.7836, 8.67108e-05, 1.33742, 0.0298474
 283.51, 0.877341, 0.126028, 307.213, 284.426, 21.3537, 21.086, 0.0359473, 25.7388, 8.34124e-05, 1.29264, 0.0298712
 285.01, 0.832509, 0.119588, 307.302, 285.384, 21.3647, 21.0915, 0.0359099, 25.694, 8.01774e-05, 1.24781, 0.0298975
 286.51, 0.787645, 0.113143, 307.392, 286.368, 21.3758, 21.0971, 0.0358725, 25.6492, 7.70038e-05, 1.20296, 0.0299166
 288.01, 0.742758, 0.106695, 307.417, 285.445, 21.3871, 21.1029, 0.0358351, 25.6043, 7.38895e-05, 1.15807, 0.0299123
 289.51, 0.697865, 0.100246, 307.483, 286.841, 21.3986, 21.1087, 0.0357977, 25.5594, 7.08343e-05, 1.11319, 0.0299412
 291.01, 0.652966, 0.0937968, 307.504, 286.929, 21.4102, 21.1147, 0.0357603, 25.5145, 6.78356e-05, 1.0683, 0.0299497
 292.51, 0.608055, 0.0873454, 307.514, 288.07, 21.422, 21.1208, 0.0357229, 25.4696, 6.48912e-05, 1.02339, 0.029951
 294.01, 0.563132, 0.0808923, 307.527, 290.115, 21.4339, 21.127, 0.0356854, 25.4247, 6.19993e-05, 0.978469, 0.0299516
 295.51, 0.518208, 0.0744391, 307.541, 291.431, 21.446, 21.1333, 0.035648, 25.3797, 5.91584e-05, 0.933547, 0.0299494
 297.01, 0.473284, 0.0679859, 307.558, 292.533, 21.4582, 21.1397, 0.0356106, 25.3348, 5.63661e-05, 0.888623, 0.0299371
 298.51, 0.428381, 0.0615357, 307.575, 295.319, 21.4706, 21.1463, 0.0355731, 25.2899, 5.36207e-05, 0.843716, 0.0299141
 300.01, 0.383522, 0.0550918, 307.588, 297.504, 21.4832, 21.1529, 0.0355358, 25.245, 5.09209e-05, 0.798852, 0.0298795
 301.51, 0.338719, 0.0486561, 307.598, 298.645, 21.4959, 21.1597, 0.0354984, 25.2002, 4.82639e-05, 0.75404, 0.0298308
 303.01, 0.294007, 0.0422332, 307.595, 300.494, 21.5088, 21.1666, 0.0354611, 25.1555, 4.56476e-05, 0.70931, 0.0297575
 304.51, 0.249489, 0.0358383, 307.52, 302.083, 21.5218, 21.1736, 0.035424, 25.1109, 4.30725e-05, 0.66476, 0.029606
 306.01, 0.205201, 0.0294766, 307.391, 303.705, 21.535, 21.1807, 0.0353871, 25.0666, 4.05358e-05, 0.620432, 0.0294257
 307.51, 0.161038, 0.0231326, 307.917, 305.142, 21.5483, 21.188, 0.0353503, 25.0224, 3.80284e-05, 0.576277, 0.0294503
 309.01, 0.116912, 0.016794, 308.508, 306.565, 21.5618, 21.1954, 0.0353135, 24.9783, 3.55359e-05, 0.532141, 0.0293984
 310.51, 0.0732886, 0.0105277, 308.484, 308.101, 21.5755, 21.2029, 0.035277, 24.9346, 3.30676e-05, 0.488419, 0.028974
 312.01, 0.02986, 0.0042893, 309.321, 309.605, 21.5893, 21.2105, 0.0352408, 24.8911, 3.06106e-05, 0.444981, 0.0289298
 313.51,-0.0133787,-0.00192182, 310.242, 311.13, 21.6033, 21.2182, 0.0352048, 24.8479, 2.81507e-05, 0.401702, 0.0287611
 315.01,-0.0556637,-0.00799593, 310.496, 312.425, 21.6175, 21.2261, 0.0351694, 24.8054, 2.57011e-05, 0.359234, 0.0279684
 316.51,-0.0975754,-0.0140164, 311.9, 314.11, 21.6318, 21.234, 0.0351344, 24.7634, 2.32464e-05, 0.317301, 0.0278901
 318.01,-0.139127,-0.0199852, 313.458, 315.861, 21.6462, 21.2422, 0.0350997, 24.7218, 2.07665e-05, 0.275679, 0.027589
 319.51,-0.178932,-0.025703, 314.513, 316.36, 21.6608, 21.2504, 0.0350662, 24.6816, 1.82866e-05, 0.235473, 0.0258569
 321.01,-0.217917,-0.0313031, 317.079, 318.634, 21.6756, 21.2587, 0.0350338, 24.6426, 1.58047e-05, 0.196502, 0.0259511
 322.51,-0.2564,-0.0368311, 319.862, 321.123, 21.6905, 21.2672, 0.0350016, 24.604, 1.32738e-05, 0.157901, 0.0254736
 324.01,-0.293876,-0.0422145, 323.19, 324.161, 21.7056, 21.2758, 0.0349702, 24.5664, 1.06891e-05, 0.120239, 0.0247071
 325.51,-0.329882,-0.0473866, 327.461, 328.149, 21.7209, 21.2846, 0.03494, 24.5301, 8.03788e-06, 0.0839689, 0.0236099
 327.01,-0.363787,-0.052257, 333.63, 334.045, 21.7363, 21.2934, 0.0349114, 24.4958, 5.29703e-06, 0.0496785, 0.0220322
 328.51,-0.394413,-0.0566563, 345.521, 345.68, 21.7518, 21.3024, 0.0348853, 24.4645, 2.40374e-06, 0.0184015, 0.0194156
 330.01,-0.40821,-0.0586382, 456.8, 476.744, 21.7675, 21.3115, 0.03487, 24.4461, 0.0000000E+000, 0.0000000E+000, 0.0000000E+000
 331.51,-0.40821,-0.0586382, 502.239, 523.035, 21.7834, 21.3208, 0.03487, 24.4461, 0.0000000E+000, 0.0000000E+000, 0.0000000E+000
 333.01,-0.40821,-0.0586382, 521.614, 542.708, 21.7994, 21.3302, 0.03487, 24.4461, 0.0000000E+000, 0.0000000E+000, 0.0000000E+000
 334.51,-0.40821,-0.0586382, 533.482, 554.647, 21.8156, 21.3397, 0.03487, 24.4461, 0.0000000E+000, 0.0000000E+000, 0.0000000E+000
 336.01,-0.40821,-0.0586382, 541.77, 562.986, 21.8319, 21.3493, 0.03487, 24.4461, 0.0000000E+000, 0.0000000E+000, 0.0000000E+000
 337.51,-0.40821,-0.0586382, 548.024, 569.277, 21.8484, 21.3591, 0.03487, 24.4461, 0.0000000E+000, 0.0000000E+000, 0.0000000E+000
 339.01,-0.40821,-0.0586382, 552.982, 574.265, 21.8651, 21.3689, 0.03487, 24.4461, 0.0000000E+000, 0.0000000E+000, 0.0000000E+000
 340.51,-0.40821,-0.0586382, 557.055, 578.36, 21.8819, 21.379, 0.03487, 24.4461, 0.0000000E+000, 0.0000000E+000, 0.0000000E+000
 342.01,-0.40821,-0.0586382, 560.466, 581.79, 21.8988, 21.3891, 0.03487, 24.4461, 0.0000000E+000, 0.0000000E+000, 0.0000000E+000
 343.51,-0.40821,-0.0586382, 563.391, 584.733, 21.916, 21.3994, 0.03487, 24.4461, 0.0000000E+000, 0.0000000E+000, 0.0000000E+000
 345.01,-0.40821,-0.0586382, 565.947, 587.299, 21.9332, 21.4098, 0.03487, 24.4461, 0.0000000E+000, 0.0000000E+000, 0.0000000E+000
 346.51,-0.40821,-0.0586382, 568.195, 589.566, 21.9507, 21.4204, 0.03487, 24.4461, 0.0000000E+000, 0.0000000E+000, 0.0000000E+000
 348.01,-0.40821,-0.0586382, 570.205, 591.589, 21.9682, 21.4311, 0.03487, 24.4461, 0.0000000E+000, 0.0000000E+000, 0.0000000E+000
 349.51,-0.40821,-0.0586382, 572.021, 593.41, 21.986, 21.4419, 0.03487, 24.4461, 0.0000000E+000, 0.0000000E+000, 0.0000000E+000
 351.01,-0.40821,-0.0586382, 573.672, 595.064, 22.0039, 21.4528, 0.03487, 24.4461, 0.0000000E+000, 0.0000000E+000, 0.0000000E+000
 352.51,-0.40821,-0.0586382, 575.162, 596.575, 22.0219, 21.4639, 0.03487, 24.4461, 0.0000000E+000, 0.0000000E+000, 0.0000000E+000
 354.01,-0.40821,-0.0586382, 576.551, 597.96, 22.0401, 21.4751, 0.03487, 24.4461, 0.0000000E+000, 0.0000000E+000, 0.0000000E+000
 355.51,-0.40821,-0.0586382, 577.819, 599.234, 22.0585, 21.4865, 0.03487, 24.4461, 0.0000000E+000, 0.0000000E+000, 0.0000000E+000
 357.01,-0.40821,-0.0586382, 578.988, 600.416, 22.077, 21.4979, 0.03487, 24.4461, 0.0000000E+000, 0.0000000E+000, 0.0000000E+000
 358.51,-0.40821,-0.0586382, 580.078, 601.515, 22.0956, 21.5095, 0.03487, 24.4461, 0.0000000E+000, 0.0000000E+000, 0.0000000E+000
 360.01,-0.40821,-0.0586382, 581.099, 602.542, 22.1145, 21.5213, 0.03487, 24.4461, 0.0000000E+000, 0.0000000E+000, 0.0000000E+000
 361.51,-0.40821,-0.0586382, 582.057, 603.504, 22.1334, 21.5332, 0.03487, 24.4461, 0.0000000E+000, 0.0000000E+000, 0.0000000E+000
 363.01,-0.40821,-0.0586382, 582.96, 604.409, 22.1526, 21.5452, 0.03487, 24.4461, 0.0000000E+000, 0.0000000E+000, 0.0000000E+000
 364.51,-0.40821,-0.0586382, 583.811, 605.26, 22.1719, 21.5573, 0.03487, 24.4461, 0.0000000E+000, 0.0000000E+000, 0.0000000E+000
 366.01,-0.40821,-0.0586382, 584.618, 606.065, 22.1913, 21.5696, 0.03487, 24.4461, 0.0000000E+000, 0.0000000E+000, 0.0000000E+000
 367.51,-0.40821,-0.0586382, 585.368, 606.831, 22.2109, 21.5821, 0.03487, 24.4461, 0.0000000E+000, 0.0000000E+000, 0.0000000E+000
 369.01,-0.40821,-0.0586382, 586.085, 607.555, 22.2307, 21.5946, 0.03487, 24.4461, 0.0000000E+000, 0.0000000E+000, 0.0000000E+000
 370.51,-0.40821,-0.0586382, 586.779, 608.243, 22.2506, 21.6073, 0.03487, 24.4461, 0.0000000E+000, 0.0000000E+000, 0.0000000E+000
 372.01,-0.40821,-0.0586382, 587.435, 608.9, 22.2707, 21.6201, 0.03487, 24.4461, 0.0000000E+000, 0.0000000E+000, 0.0000000E+000
 373.51,-0.40821,-0.0586382, 588.047, 609.526, 22.2909, 21.6331, 0.03487, 24.4461, 0.0000000E+000, 0.0000000E+000, 0.0000000E+000
 375.01,-0.40821,-0.0586382, 588.651, 610.121, 22.3113, 21.6462, 0.03487, 24.4461, 0.0000000E+000, 0.0000000E+000, 0.0000000E+000
 376.51,-0.40821,-0.0586382, 589.202, 610.693, 22.3319, 21.6595, 0.03487, 24.4461, 0.0000000E+000, 0.0000000E+000, 0.0000000E+000
 378.01,-0.40821,-0.0586382, 589.758, 611.237, 22.3526, 21.6728, 0.03487, 24.4461, 0.0000000E+000, 0.0000000E+000, 0.0000000E+000
 379.51,-0.40821,-0.0586382, 590.266, 611.765, 22.3736, 21.6864, 0.03487, 24.4461, 0.0000000E+000, 0.0000000E+000, 0.0000000E+000
 381.01,-0.40821,-0.0586382, 590.782, 612.268, 22.3946, 21.7, 0.03487, 24.4461, 0.0000000E+000, 0.0000000E+000, 0.0000000E+000
 382.51,-0.40821,-0.0586382, 591.25, 612.754, 22.4159, 21.7138, 0.03487, 24.4461, 0.0000000E+000, 0.0000000E+000, 0.0000000E+000
 384.01,-0.40821,-0.0586382, 591.728, 613.217, 22.4373, 21.7278, 0.03487, 24.4461, 0.0000000E+000, 0.0000000E+000, 0.0000000E+000
 385.51,-0.40821,-0.0586382, 592.165, 613.67, 22.459, 21.7418, 0.03487, 24.4461, 0.0000000E+000, 0.0000000E+000, 0.0000000E+000
 387.01,-0.40821,-0.0586382, 592.611, 614.101, 22.4808, 21.7561, 0.03487, 24.4461, 0.0000000E+000, 0.0000000E+000, 0.0000000E+000
 388.51,-0.40821,-0.0586382, 593.015, 614.52, 22.5028, 21.7704, 0.03487, 24.4461, 0.0000000E+000, 0.0000000E+000, 0.0000000E+000
 390.01,-0.40821,-0.0586382, 593.438, 614.927, 22.525, 21.7849, 0.03487, 24.4461, 0.0000000E+000, 0.0000000E+000, 0.0000000E+000
 391.51,-0.40821,-0.0586382, 593.814, 615.317, 22.5474, 21.7996, 0.03487, 24.4461, 0.0000000E+000, 0.0000000E+000, 0.0000000E+000
 393.01,-0.40821,-0.0586382, 594.182, 615.699, 22.5701, 21.8144, 0.03487, 24.4461, 0.0000000E+000, 0.0000000E+000, 0.0000000E+000
 394.51,-0.40821,-0.0586382, 594.565, 616.064, 22.5929, 21.8293, 0.03487, 24.4461, 0.0000000E+000, 0.0000000E+000, 0.0000000E+000
 396.01,-0.40821,-0.0586382, 594.908, 616.42, 22.616, 21.8444, 0.03487, 24.4461, 0.0000000E+000, 0.0000000E+000, 0.0000000E+000
 397.51,-0.40821,-0.0586382, 595.245, 616.77, 22.6394, 21.8597, 0.03487, 24.4461, 0.0000000E+000, 0.0000000E+000, 0.0000000E+000
 399.01,-0.40821,-0.0586382, 595.596, 617.101, 22.663, 21.8751, 0.03487, 24.4461, 0.0000000E+000, 0.0000000E+000, 0.0000000E+000
 400.51,-0.40821,-0.0586382, 595.912, 617.429, 22.6868, 21.8906, 0.03487, 24.4461, 0.0000000E+000, 0.0000000E+000, 0.0000000E+000
 402.01,-0.40821,-0.0586382, 596.216, 617.745, 22.7109, 21.9063, 0.03487, 24.4461, 0.0000000E+000, 0.0000000E+000, 0.0000000E+000
 403.51,-0.40821,-0.0586382, 596.543, 618.052, 22.7353, 21.9222, 0.03487, 24.4461, 0.0000000E+000, 0.0000000E+000, 0.0000000E+000
 405.01,-0.40821,-0.0586382, 596.83, 618.35, 22.7599, 21.9382, 0.03487, 24.4461, 0.0000000E+000, 0.0000000E+000, 0.0000000E+000
 406.51,-0.40821,-0.0586382, 597.114, 618.644, 22.7849, 21.9544, 0.03487, 24.4461, 0.0000000E+000, 0.0000000E+000, 0.0000000E+000
 408.01,-0.40821,-0.0586382, 597.416, 618.926, 22.8101, 21.9707, 0.03487, 24.4461, 0.0000000E+000, 0.0000000E+000, 0.0000000E+000
 409.51,-0.40821,-0.0586382, 597.681, 619.2, 22.8357, 21.9873, 0.03487, 24.4461, 0.0000000E+000, 0.0000000E+000, 0.0000000E+000
 411.01,-0.40821,-0.0586382, 597.945, 619.474, 22.8616, 22.004, 0.03487, 24.4461, 0.0000000E+000, 0.0000000E+000, 0.0000000E+000
 412.51,-0.40821,-0.0586382, 598.196, 619.734, 22.8879, 22.0208, 0.03487, 24.4461, 0.0000000E+000, 0.0000000E+000, 0.0000000E+000
 414.01,-0.40821,-0.0586382, 598.473, 619.99, 22.9145, 22.0379, 0.03487, 24.4461, 0.0000000E+000, 0.0000000E+000, 0.0000000E+000
 415.51,-0.40821,-0.0586382, 598.716, 620.242, 22.9414, 22.0551, 0.03487, 24.4461, 0.0000000E+000, 0.0000000E+000, 0.0000000E+000
 417.01,-0.40821,-0.0586382, 598.952, 620.487, 22.9687, 22.0725, 0.03487, 24.4461, 0.0000000E+000, 0.0000000E+000, 0.0000000E+000
 418.51,-0.40821,-0.0586382, 599.184, 620.727, 22.9965, 22.0901, 0.03487, 24.4461, 0.0000000E+000, 0.0000000E+000, 0.0000000E+000
 420.01,-0.40821,-0.0586382, 599.437, 620.958, 23.0246, 22.1079, 0.03487, 24.4461, 0.0000000E+000, 0.0000000E+000, 0.0000000E+000
 421.51,-0.40821,-0.0586382, 599.657, 621.186, 23.0531, 22.1259, 0.03487, 24.4461, 0.0000000E+000, 0.0000000E+000, 0.0000000E+000
 423.01,-0.40821,-0.0586382, 599.876, 621.413, 23.082, 22.1441, 0.03487, 24.4461, 0.0000000E+000, 0.0000000E+000, 0.0000000E+000
 424.51,-0.40821,-0.0586382, 600.085, 621.63, 23.1114, 22.1625, 0.03487, 24.4461, 0.0000000E+000, 0.0000000E+000, 0.0000000E+000
 426.01,-0.40821,-0.0586382, 600.305, 621.845, 23.1412, 22.1811, 0.03487, 24.4461, 0.0000000E+000, 0.0000000E+000, 0.0000000E+000
 427.51,-0.40821,-0.0586382, 600.525, 622.054, 23.1714, 22.1999, 0.03487, 24.4461, 0.0000000E+000, 0.0000000E+000, 0.0000000E+000
 429.01,-0.40821,-0.0586382, 600.723, 622.259, 23.2021, 22.219, 0.03487, 24.4461, 0.0000000E+000, 0.0000000E+000, 0.0000000E+000
 430.51,-0.40821,-0.0586382, 600.918, 622.462, 23.2332, 22.2382, 0.03487, 24.4461, 0.0000000E+000, 0.0000000E+000, 0.0000000E+000
 432.01,-0.40821,-0.0586382, 601.109, 622.66, 23.2649, 22.2577, 0.03487, 24.4461, 0.0000000E+000, 0.0000000E+000, 0.0000000E+000
 433.51,-0.40821,-0.0586382, 601.314, 622.855, 23.297, 22.2775, 0.03487, 24.4461, 0.0000000E+000, 0.0000000E+000, 0.0000000E+000
 435.01,-0.40821,-0.0586382, 601.505, 623.038, 23.3297, 22.2974, 0.03487, 24.4461, 0.0000000E+000, 0.0000000E+000, 0.0000000E+000
 436.51,-0.40821,-0.0586382, 601.686, 623.227, 23.3628, 22.3176, 0.03487, 24.4461, 0.0000000E+000, 0.0000000E+000, 0.0000000E+000
 438.01,-0.40821,-0.0586382, 601.864, 623.411, 23.3964, 22.3381, 0.03487, 24.4461, 0.0000000E+000, 0.0000000E+000, 0.0000000E+000
 439.51,-0.40821,-0.0586382, 602.035, 623.588, 23.4306, 22.3588, 0.03487, 24.4461, 0.0000000E+000, 0.0000000E+000, 0.0000000E+000
 441.01,-0.40821,-0.0586382, 602.204, 623.764, 23.4653, 22.3798, 0.03487, 24.4461, 0.0000000E+000, 0.0000000E+000, 0.0000000E+000
 442.51,-0.40821,-0.0586382, 602.401, 623.936, 23.5005, 22.4011, 0.03487, 24.4461, 0.0000000E+000, 0.0000000E+000, 0.0000000E+000
 444.01,-0.40821,-0.0586382, 602.564, 624.105, 23.5363, 22.4226, 0.03487, 24.4461, 0.0000000E+000, 0.0000000E+000, 0.0000000E+000
 445.51,-0.40821,-0.0586382, 602.723, 624.27, 23.5726, 22.4444, 0.03487, 24.4461, 0.0000000E+000, 0.0000000E+000, 0.0000000E+000
 447.01,-0.40821,-0.0586382, 602.882, 624.435, 23.6095, 22.4665, 0.03487, 24.4461, 0.0000000E+000, 0.0000000E+000, 0.0000000E+000
 448.51,-0.40821,-0.0586382, 603.037, 624.596, 23.647, 22.4888, 0.03487, 24.4461, 0.0000000E+000, 0.0000000E+000, 0.0000000E+000
 450.01,-0.40821,-0.0586382, 603.192, 624.756, 23.685, 22.5115, 0.03487, 24.4461, 0.0000000E+000, 0.0000000E+000, 0.0000000E+000
 451.51,-0.40821,-0.0586382, 603.368, 624.907, 23.7236, 22.5345, 0.03487, 24.4461, 0.0000000E+000, 0.0000000E+000, 0.0000000E+000
 453.01,-0.40821,-0.0586382, 603.514, 625.059, 23.7628, 22.5577, 0.03487, 24.4461, 0.0000000E+000, 0.0000000E+000, 0.0000000E+000
 454.51,-0.40821,-0.0586382, 603.66, 625.211, 23.8025, 22.5813, 0.03487, 24.4461, 0.0000000E+000, 0.0000000E+000, 0.0000000E+000
 456.01,-0.40821,-0.0586382, 603.806, 625.361, 23.8429, 22.6052, 0.03487, 24.4461, 0.0000000E+000, 0.0000000E+000, 0.0000000E+000
 457.51,-0.40821,-0.0586382, 603.946, 625.506, 23.8839, 22.6294, 0.03487, 24.4461, 0.0000000E+000, 0.0000000E+000, 0.0000000E+000
 459.01,-0.40821,-0.0586382, 604.081, 625.647, 23.9254, 22.6539, 0.03487, 24.4461, 0.0000000E+000, 0.0000000E+000, 0.0000000E+000
 460.51,-0.40821,-0.0586382, 604.219, 625.79, 23.9676, 22.6788, 0.03487, 24.4461, 0.0000000E+000, 0.0000000E+000, 0.0000000E+000
 462.01,-0.40821,-0.0586382, 604.381, 625.926, 24.0104, 22.704, 0.03487, 24.4461, 0.0000000E+000, 0.0000000E+000, 0.0000000E+000
 463.51,-0.40821,-0.0586382, 604.513, 626.063, 24.0538, 22.7296, 0.03487, 24.4461, 0.0000000E+000, 0.0000000E+000, 0.0000000E+000
 465.01,-0.40821,-0.0586382, 604.645, 626.2, 24.0978, 22.7555, 0.03487, 24.4461, 0.0000000E+000, 0.0000000E+000, 0.0000000E+000
 466.51,-0.40821,-0.0586382, 604.771, 626.331, 24.1424, 22.7817, 0.03487, 24.4461, 0.0000000E+000, 0.0000000E+000, 0.0000000E+000
 468.01,-0.40821,-0.0586382, 604.897, 626.461, 24.1876, 22.8083, 0.03487, 24.4461, 0.0000000E+000, 0.0000000E+000, 0.0000000E+000
 469.51,-0.40821,-0.0586382, 605.023, 626.591, 24.2335, 22.8353, 0.03487, 24.4461, 0.0000000E+000, 0.0000000E+000, 0.0000000E+000
 471.01,-0.40821,-0.0586382, 605.146, 626.719, 24.28, 22.8627, 0.03487, 24.4461, 0.0000000E+000, 0.0000000E+000, 0.0000000E+000
 472.51,-0.40821,-0.0586382, 605.279, 626.845, 24.3271, 22.8904, 0.03487, 24.4461, 0.0000000E+000, 0.0000000E+000, 0.0000000E+000
 474.01,-0.40821,-0.0586382, 605.411, 626.962, 24.3749, 22.9185, 0.03487, 24.4461, 0.0000000E+000, 0.0000000E+000, 0.0000000E+000
 475.51,-0.40821,-0.0586382, 605.528, 627.084, 24.4233, 22.947, 0.03487, 24.4461, 0.0000000E+000, 0.0000000E+000, 0.0000000E+000
 477.01,-0.40821,-0.0586382, 605.646, 627.206, 24.4723, 22.9758, 0.03487, 24.4461, 0.0000000E+000, 0.0000000E+000, 0.0000000E+000
 478.51,-0.40821,-0.0586382, 605.761, 627.325, 24.5219, 23.0051, 0.03487, 24.4461, 0.0000000E+000, 0.0000000E+000, 0.0000000E+000
 480.01,-0.40821,-0.0586382, 605.872, 627.441, 24.5722, 23.0347, 0.03487, 24.4461, 0.0000000E+000, 0.0000000E+000, 0.0000000E+000
 481.51,-0.40821,-0.0586382, 605.982, 627.554, 24.6232, 23.0648, 0.03487, 24.4461, 0.0000000E+000, 0.0000000E+000, 0.0000000E+000
 483.01,-0.40821,-0.0586382, 606.091, 627.668, 24.6747, 23.0953, 0.03487, 24.4461, 0.0000000E+000, 0.0000000E+000, 0.0000000E+000
 484.51,-0.40821,-0.0586382, 606.201, 627.782, 24.7269, 23.1261, 0.03487, 24.4461, 0.0000000E+000, 0.0000000E+000, 0.0000000E+000
 486.01,-0.40821,-0.0586382, 606.334, 627.888, 24.7797, 23.1574, 0.03487, 24.4461, 0.0000000E+000, 0.0000000E+000, 0.0000000E+000
 487.51,-0.40821,-0.0586382, 606.44, 627.997, 24.8332, 23.1891, 0.03487, 24.4461, 0.0000000E+000, 0.0000000E+000, 0.0000000E+000
 489.01,-0.40821,-0.0586382, 606.545, 628.106, 24.8873, 23.2213, 0.03487, 24.4461, 0.0000000E+000, 0.0000000E+000, 0.0000000E+000
 490.51,-0.40821,-0.0586382, 606.647, 628.212, 24.9421, 23.2538, 0.03487, 24.4461, 0.0000000E+000, 0.0000000E+000, 0.0000000E+000
 492.01,-0.40821,-0.0586382, 606.747, 628.315, 24.9975, 23.2868, 0.03487, 24.4461, 0.0000000E+000, 0.0000000E+000, 0.0000000E+000
 493.51,-0.40821,-0.0586382, 606.846, 628.418, 25.0535, 23.3202, 0.03487, 24.4461, 0.0000000E+000, 0.0000000E+000, 0.0000000E+000
 495.01,-0.40821,-0.0586382, 606.946, 628.522, 25.1101, 23.3541, 0.03487, 24.4461, 0.0000000E+000, 0.0000000E+000, 0.0000000E+000
 496.51,-0.40821,-0.0586382, 607.044, 628.623, 25.1674, 23.3884, 0.03487, 24.4461, 0.0000000E+000, 0.0000000E+000, 0.0000000E+000
 498.01,-0.40821,-0.0586382, 607.141, 628.724, 25.2254, 23.4232, 0.03487, 24.4461, 0.0000000E+000, 0.0000000E+000, 0.0000000E+000
 499.51,-0.40821,-0.0586382, 607.237, 628.824, 25.2839, 23.4584, 0.03487, 24.4461, 0.0000000E+000, 0.0000000E+000, 0.0000000E+000
 500,-0.40821,-0.0586382, 607.286, 628.854, 25.3034, 23.4701, 0.03487, 24.4461, 0.0000000E+000, 0.0000000E+000, 0.0000000E+000