File: Non-charring/PMMA/UClan/UClan_Cone_25KW.csv
Time,Sample Mass,HRR,Back Surface Temperature
[s],[g],[kW],[K]
0,74.12,1.53026E-09,314.15
1,74.1899,0.001089281,
2,74.23,0.001824301,315.15
3,74.23,0.00226186,
4,74.2,0.002575261,316.15
5,74.1799,0.002753145,
6,74.2,0.006532477,315.15
7,74.2,0.00977919,
8,74.1899,0.012293,316.65
9,74.1899,0.0136182,
10,74.23,0.0147095,316.65
11,74.21,0.01506864,
12,74.1699,0.0126526,316.65
13,74.1799,0.0112313,
14,74.1799,0.0100608,317.15
15,74.2,0.009434486,
16,74.1899,0.008881113,317.65
17,74.21,0.008551455,
18,74.21,0.008350011,318.65
19,74.1899,0.0128268,
20,74.1899,0.01593339,318.65
21,74.1699,0.0204673,
22,74.1799,0.022781,318.65
23,74.1699,0.0226113,
24,74.16,0.021749,319.65
25,74.1799,0.0217901,
26,74.16,0.0211727,320.15
27,74.15,0.021392,
28,74.14,0.0211879,320.15
29,74.14,0.0190168,
30,74.15,0.014865,321.15
31,74.14,0.0126978,
32,74.15,0.008503562,321.15
33,74.13,0.00368312,
34,74.14,0.000641772,321.15
35,74.14,-0.002418757,
36,74.14,-0.004692728,322.15
37,74.13,-0.003661823,
38,74.13,-0.000913632,322.65
39,74.12,0.000902483,
40,74.14,0.002089159,322.65
41,74.15,0.002837346,
42,74.14,0.003358906,323.65
43,74.13,0.003682638,
44,74.14,0.000284055,323.65
45,74.13,-0.002862262,
46,74.14,-0.005008521,323.65
47,74.15,-0.006436208,
48,74.14,-0.008595704,325.15
49,74.13,-0.0103559,
50,74.15,-0.0115997,325.15
51,74.15,-0.0122532,
52,74.13,-0.0128323,327.15
53,74.13,-0.0131703,
54,74.11,-0.0133519,327.15
55,74.12,-0.0134941,
56,74.13,-0.01499718,326.15
57,74.13,-0.0189896,
58,74.13,-0.0155227,327.65
59,74.11,-0.009702684,
60,74.12,-0.004964784,328.15
61,74.14,-0.001774761,
62,74.1,0.000299186,328.15
63,74.09,0.001637886,
64,74.12,0.002544757,328.65
65,74.11,0.003145082,
66,74.11,0.003541504,328.65
67,74.12,0.003780718,
68,74.12,0.003928318,329.15
69,74.12,0.004112269,
70,74.12,0.004115479,330.15
71,74.11,0.004179941,
72,74.12,0.004175853,330.15
73,74.13,0.004185509,
74,74.11,0.004281824,330.65
75,74.09,0.004209286,
76,74.0699,0.007737969,331.15
77,74.0699,0.0111431,
78,74.1,0.0131763,331.65
79,74.09,0.0149521,
80,74.0699,0.0158969,331.65
81,74.1,0.0117799,
82,74.08,0.007922838,331.65
83,74.09,0.005995058,
84,74.08,0.004122801,332.15
85,74.0699,0.002938332,
86,74.0599,0.002170573,332.65
87,74.0699,0.001651955,
88,74.1,0.001281737,333.65
89,74.08,0.001054644,
90,74.09,0.000923254,334.15
91,74.09,0.00081636,
92,74.0499,0.00075436,334.65
93,74.04,0.000721993,
94,74.0499,0.000698527,336.15
95,74.0599,0.000683648,
96,74.0699,0.000695081,336.15
97,74.08,0.000689293,
98,74.09,0.000684353,336.65
99,74.0599,-0.000987501,
100,74.0699,-0.002100607,337.65
101,74.0499,-0.002823921,
102,74.0599,-0.002926863,338.65
103,74.04,-0.002958177,
104,74.04,-0.003017694,338.65
105,74.02,-0.002977889,
106,74.02,-0.003078092,339.65
107,74,-0.002999181,
108,74.01,-0.00302813,341.15
109,74,-0.003035986,
110,74,-0.001361683,342.15
111,73.99,-0.000287076,
112,73.97,0.004023369,342.65
113,73.97,0.003241441,
114,73.97,0.005266256,343.65
115,73.95,0.008819844,
116,73.9399,0.0110567,344.65
117,73.9299,0.0150727,
118,73.9102,0.023988,345.65
119,73.8801,0.03450983,
120,73.8201,0.0654799,346.15
121,73.8,0.103504,
122,73.7701,0.17431,347.65
123,73.7001,0.248853,
124,73.6501,0.344762,348.15
125,73.5701,0.481627,
126,73.4802,0.667921,349.15
127,73.4003,0.825487,
128,73.3102,0.995573,350.15
129,73.2402,1.14241,
130,73.1403,1.25753,351.15
131,73.0503,1.41447,
132,72.9503,1.59183,352.15
133,72.8403,1.70721,
134,72.7303,1.83598,353.65
135,72.6205,1.93718,
136,72.5105,2.06356,354.65
137,72.4204,2.09832,
138,72.3004,2.16435,356.15
139,72.2006,2.22964,
140,72.0605,2.31143,357.65
141,71.9406,2.34609,
142,71.8506,2.40223,358.65
143,71.7607,2.42525,
144,71.6407,2.46229,360.15
145,71.5607,2.55077,
146,71.4507,2.47274,360.65
147,71.3008,2.52521,
148,71.1509,2.59619,362.65
149,71.0409,2.55476,
150,70.9609,2.58793,363.15
151,70.851,2.58079,
152,70.751,2.53638,364.15
153,70.641,2.54045,
154,70.5011,2.6201,366.15
155,70.4011,2.70994,
156,70.2811,2.66903,367.15
157,70.1611,2.67294,
158,70.0511,2.70185,367.65
159,69.9412,2.73853,
160,69.8312,2.67888,369.15
161,69.7312,2.70899,
162,69.6113,2.71279,370.15
163,69.4913,2.66184,
164,69.3713,2.67132,371.15
165,69.2615,2.72224,
166,69.1215,2.70742,373.65
167,69.0115,2.68672,
168,68.9015,2.6822,374.65
169,68.7716,2.65652,
170,68.6316,2.76589,374.65
171,68.5416,2.71834,
172,68.4117,2.78735,376.15
173,68.3116,2.78828,
174,68.1917,2.72938,377.15
175,68.0417,2.74791,
176,67.9218,2.82636,378.15
177,67.7919,2.87089,
178,67.6818,2.77576,378.65
179,67.5519,2.83913,
180,67.412,2.80781,380.15
181,67.292,2.88753,
182,67.1819,2.82781,381.15
183,67.092,2.90864,
184,66.9821,2.83839,381.65
185,66.8521,2.76049,
186,66.7522,2.84956,382.65
187,66.6222,2.85322,
188,66.4822,2.8813,383.65
189,66.3622,2.89357,
190,66.2223,2.84656,384.65
191,66.1023,2.85168,
192,65.9923,2.75266,385.15
193,65.8724,2.8801,
194,65.7524,2.86271,386.65
195,65.6324,2.82966,
196,65.5024,2.92287,386.65
197,65.3525,2.88189,
198,65.2225,2.98639,387.65
199,65.0925,2.94986,
200,64.9626,2.98222,389.65
201,64.8226,2.90178,
202,64.7026,2.9354,389.65
203,64.5828,2.95704,
204,64.4628,2.98835,391.65
205,64.3428,3.02881,
206,64.2129,3.00977,391.65
207,64.0829,2.96591,
208,63.9629,2.94935,392.65
209,63.8329,3.00635,
210,63.693,2.98718,394.15
211,63.563,3.12725,
212,63.4131,2.98933,395.15
213,63.3031,2.96993,
214,63.1532,2.97785,395.65
215,63.0032,3.11276,
216,62.8633,2.97489,397.65
217,62.7633,3.10462,
218,62.6533,3.0388,398.65
219,62.5334,3.11859,
220,62.3934,3.0576,399.15
221,62.2434,3.11758,
222,62.1135,3.19071,400.65
223,61.9935,3.17732,
224,61.8535,3.1419,401.15
225,61.7435,3.1429,
226,61.6136,3.14963,401.65
227,61.4937,3.09512,
228,61.3436,3.1245,403.65
229,61.2238,3.03062,
230,61.09375,3.11821,404.15
231,60.9237,3.08502,
232,60.8138,3.13542,405.15
233,60.6639,3.10928,
234,60.4939,3.15711,406.15
235,60.374,3.16035,
236,60.234,3.17874,407.65
237,60.104,3.15998,
238,59.9441,3.15894,408.15
239,59.8241,3.28382,
240,59.6642,3.31321,409.15
241,59.4943,3.25465,
242,59.3943,3.28815,410.65
243,59.2543,3.28852,
244,59.1244,3.36519,411.65
245,58.9744,3.37161,
246,58.8243,3.34508,411.65
247,58.6945,3.30882,
248,58.5645,3.30161,412.15
249,58.4045,3.32121,
250,58.2847,3.36453,413.65
251,58.1346,3.36641,
252,57.9746,3.38941,415.65
253,57.8147,3.43119,
254,57.6747,3.37705,415.65
255,57.2048,3.31597,
256,58.5745,3.32128,417.15
257,58.0447,3.34827,
258,58.0846,3.42773,417.15
259,58.0046,3.43085,
260,57.8748,3.37321,419.15
261,58.3845,3.38103,
262,55.1455,3.41022,419.15
263,57.5048,3.35807,
264,57.3749,3.39964,420.15
265,57.2749,3.45659,
266,57.1249,3.44552,421.65
267,56.9449,3.3894,
268,56.795,3.50376,422.15
269,56.6251,3.51897,
270,56.5352,3.47362,422.65
271,56.3551,3.53778,
272,56.1952,3.55022,424.15
273,56.0453,3.60687,
274,55.8953,3.55379,425.15
275,55.7354,3.7627,
276,55.6154,3.63019,426.15
277,55.4553,3.63239,
278,55.2755,3.69731,427.15
279,55.1355,3.53587,
280,54.9855,3.72875,427.65
281,54.8256,3.73717,
282,54.6956,3.68718,428.65
283,54.5555,3.633,
284,54.3857,3.57262,429.65
285,54.2457,3.76247,
286,54.0658,3.55956,430.15
287,53.9258,3.64541,
288,53.7759,3.63323,431.65
289,53.606,3.66225,
290,53.4559,3.58164,432.15
291,53.286,3.64769,
292,53.1561,3.62971,433.15
293,52.936,3.62247,
294,52.7762,3.70286,434.15
295,52.5662,3.78995,
296,52.4762,3.72913,436.15
297,52.3263,3.80854,
298,52.1364,3.69702,436.15
299,52.0063,3.69615,
300,51.8164,3.83664,437.65
301,51.6064,3.83498,
302,51.4166,3.78907,438.65
303,51.2866,3.81072,
304,51.0967,3.90042,439.65
305,51.0468,3.85151,
306,50.8367,3.86197,440.15
307,50.6868,3.91463,
308,50.5369,3.79223,441.15
309,50.3468,3.87002,
310,50.1769,3.82998,442.15
311,50.027,3.80893,
312,49.887,3.80326,443.65
313,49.7471,3.8543,
314,49.577,3.77082,444.15
315,49.4271,3.91198,
316,49.2772,3.82687,446.15
317,49.0571,3.81412,
318,48.9174,3.90044,446.65
319,48.7673,3.82387,
320,48.5874,3.87378,447.15
321,48.4075,3.92717,
322,48.2775,3.88378,448.15
323,48.0775,3.88361,
324,47.9275,3.81833,449.65
325,47.7477,3.91871,
326,47.5876,3.95005,449.65
327,47.4177,3.9454,
328,47.2178,3.96449,450.65
329,47.0878,3.96921,
330,46.908,4.00565,451.65
331,46.798,3.95848,
332,46.6079,3.92462,453.65
333,46.428,3.98424,
334,46.2781,3.9311,454.15
335,46.1381,3.84915,
336,45.9581,3.93807,454.65
337,45.7482,3.98558,
338,45.6083,3.81414,456.15
339,45.4482,3.9137,
340,45.2584,3.98627,456.65
341,45.1084,3.90223,
342,44.8984,3.99162,457.65
343,44.7485,3.99106,
344,44.5985,4.00089,459.15
345,44.4586,3.94703,
346,44.2786,4.0135,460.15
347,44.1486,3.9529,
348,43.9487,3.87853,461.15
349,43.7988,3.9863,
350,43.6288,4.00202,462.15
351,43.4289,4.07362,
352,43.2889,3.98183,463.15
353,43.059,4.02253,
354,42.919,4.01571,464.15
355,42.7691,4.03899,
356,42.5692,4.02886,465.65
357,42.4191,4.04084,
358,42.2792,3.90096,466.65
359,42.1093,3.96567,
360,41.9293,4.01664,467.15
361,41.7494,4.02802,
362,41.5294,4.0713,469.15
363,41.3394,4.06872,
364,41.1895,3.97965,470.65
365,40.9896,4.0442,
366,40.8496,4.05065,471.15
367,40.6897,4.09777,
368,40.5797,3.96549,471.65
369,40.4197,3.99666,
370,40.2798,3.99451,472.65
371,40.0998,4.13136,
372,39.8699,4.09669,475.15
373,39.7099,4.13389,
374,39.62,4.05419,475.15
375,39.42,4.11981,
376,39.2501,4.06239,477.65
377,39.1301,4.08143,
378,38.9202,3.95948,479.15
379,38.7703,3.9895,
380,38.6202,4.00142,479.65
381,38.4303,4.04228,
382,38.2404,4.11762,481.15
383,38.0804,4.06205,
384,37.9405,4.22169,482.15
385,37.8105,4.14501,
386,37.5905,4.06966,483.15
387,37.3506,4.18318,
388,37.2007,4.27929,484.15
389,37.0007,4.16442,
390,36.7908,4.29707,485.65
391,36.6309,4.25209,
392,36.4609,4.29592,487.15
393,36.191,4.21328,
394,36.061,4.36674,488.65
395,35.871,4.50242,
396,35.7711,4.32153,489.65
397,35.5511,4.30121,
398,35.3512,4.32525,491.15
399,35.2112,4.29566,
400,35.03125,4.28767,492.65
401,34.8813,4.27997,
402,34.6414,4.3651,494.15
403,34.4915,4.36093,
404,34.3015,4.45787,495.15
405,34.1516,4.32239,
406,33.9615,4.35982,497.15
407,33.7717,4.38558,
408,33.5917,4.38745,498.65
409,33.4017,4.28527,
410,33.2318,4.42524,500.15
411,33.0619,4.45167,
412,32.882,4.46439,502.15
413,32.692,4.45322,
414,32.482,4.46703,504.15
415,32.342,4.42814,
416,32.2021,4.42054,505.65
417,32.0422,4.37445,
418,31.8522,4.43771,507.15
419,31.6823,4.42937,
420,31.5323,4.40632,509.15
421,31.3524,4.21767,
422,31.1924,4.28036,510.65
423,30.9825,4.11674,
424,30.8525,4.18238,512.65
425,30.6826,4.1237,
426,30.5126,4.14974,516.15
427,30.3627,4.10844,
428,30.1927,4.11653,517.15
429,30.0027,4.19706,
430,29.8128,4.15804,518.65
431,29.6628,4.15539,
432,29.4629,4.34348,520.65
433,29.273,4.16905,
434,29.103,4.21403,523.15
435,28.923,4.26779,
436,28.7131,4.22567,525.15
437,28.5632,4.29552,
438,28.3532,4.26991,527.65
439,28.1333,4.34959,
440,27.9733,4.38395,529.15
441,27.9434,4.27947,
442,28.2832,4.4704,531.15
443,26.7037,4.39463,
444,25.9439,4.21416,533.65
445,25.604,4.19469,
446,25.1342,4.35713,535.65
447,26.2538,4.33059,
448,26.6537,4.36654,538.15
449,26.4238,4.43554,
450,26.2338,4.3707,540.65
451,26.0839,4.46125,
452,25.8439,4.39226,542.65
453,25.694,4.39307,
454,25.534,4.36242,545.15
455,25.2742,4.40146,
456,25.1241,4.39971,548.15
457,24.9742,4.4235,
458,24.7643,4.30152,550.65
459,24.6043,4.3498,
460,24.4244,4.42859,554.65
461,24.2244,4.48085,
462,24.0045,4.51741,557.15
463,23.8146,4.52067,
464,23.6646,4.67743,561.15
465,23.5046,4.64636,
466,23.0048,4.7257,564.65
467,22.6548,4.68141,
468,22.095,4.66161,568.65
469,21.8951,4.50313,
470,21.7551,4.48409,572.15
471,21.5752,4.48018,
472,21.3752,4.56684,574.65
473,21.2053,4.42672,
474,21.1053,4.40763,579.15
475,20.8754,4.34189,
476,20.7454,4.28513,582.15
477,20.5655,4.45873,
478,20.4155,4.4797,584.65
479,20.1956,4.459,
480,20.0556,4.37792,587.15
481,19.9156,4.28095,
482,19.7357,4.30755,590.65
483,19.5858,4.29519,
484,19.4558,4.18106,593.15
485,19.2659,4.17109,
486,19.1359,4.10652,596.65
487,19.0459,3.99454,
488,18.856,3.99111,598.15
489,18.736,4.03235,
490,18.616,3.92689,601.15
491,18.4761,3.85937,
492,18.3661,3.78555,604.15
493,18.2361,3.79573,
494,18.0862,3.77335,605.65
495,17.9462,3.69448,
496,17.8163,3.68016,608.15
497,17.6863,3.67094,
498,17.5663,3.65908,610.65
499,17.3164,3.59549,
500,17.2765,3.58124,612.65
501,17.1765,3.46553,
502,17.0165,3.36737,615.15
503,16.9465,3.3159,
504,16.8166,3.29081,617.65
505,16.7266,3.17719,
506,16.5867,3.19281,619.15
507,16.5167,3.18142,
508,16.4167,3.07943,621.15
509,16.3367,3.14924,
510,16.2467,3.04021,622.65
511,16.1368,3.03288,
512,15.9968,2.98108,625.15
513,15.9168,3.00678,
514,15.8268,2.92564,627.65
515,15.6869,2.884,
516,15.587,2.92239,630.15
517,15.447,2.89697,
518,15.387,2.84095,634.15
519,15.297,2.80503,
520,15.197,2.81584,638.65
521,15.1071,2.80071,
522,14.9871,2.72467,642.65
523,14.9271,2.6533,
524,14.8671,2.62779,647.65
525,14.7772,2.61821,
526,14.6972,2.54588,652.15
527,14.5972,2.58024,
528,14.5073,2.5428,658.15
529,14.4272,2.51746,
530,14.3373,2.51494,665.65
531,14.2373,2.54122,
532,14.1273,2.4731,674.65
533,14.0774,2.43932,
534,14.0174,2.441,685.15
535,13.9074,2.37183,
536,13.8474,2.34156,700.15
537,13.7574,2.32052,
538,13.6475,2.35251,716.65
539,13.5975,2.32005,
540,13.5375,2.25382,734.65
541,13.4576,2.29101,
542,13.3676,2.30569,757.15
543,13.2576,2.2456,
544,13.1876,2.24671,777.15
545,13.0876,2.23489,
546,13.0077,2.2204,794.65
547,12.9577,2.26905,
548,12.9077,2.25821,808.15
549,12.8177,2.20588,
550,12.7877,2.14818,820.65
551,12.7277,2.1348,
552,12.6677,2.10104,835.15
553,12.5578,2.14562,
554,12.4578,2.08421,845.65
555,12.3979,2.08435,
556,12.3879,2.03192,853.15
557,12.3179,2.05296,
558,12.1979,2.02965,867.15
559,12.1779,1.99679,
560,12.1179,1.98694,880.65
561,12.0579,2.02077,
562,11.958,2.03448,883.65
563,11.888,1.97092,
564,11.828,1.97229,888.15
565,11.748,1.90337,
566,11.6981,1.94157,892.65
567,11.608,1.91389,
568,11.618,1.90771,895.65
569,11.5481,1.83934,
570,11.5181,1.82418,901.15
571,11.4481,1.82122,
572,11.3881,1.79668,905.65
573,11.3481,1.77045,
574,11.2482,1.77647,909.15
575,11.1882,1.78667,
576,11.1582,1.78107,916.15
577,11.1182,1.77098,
578,11.0582,1.7101,920.15
579,10.9882,1.68221,
580,10.9383,1.73374,924.15
581,10.8983,1.69582,
582,10.8283,1.67486,927.65
583,10.7883,1.6541,
584,10.7583,1.621,935.15
585,10.7484,1.63547,
586,10.6783,1.6324,945.15
587,10.6083,1.5962,
588,10.5084,1.56273,948.65
589,10.4784,1.58945,
590,10.4584,1.5895,950.15
591,10.4384,1.56645,
592,10.3684,1.53489,945.15
593,10.3085,1.54229,
594,10.2485,1.51786,941.65
595,10.1985,1.5306,
596,10.1785,1.51926,935.65
597,10.1285,1.5061,
598,10.0786,1.48643,931.15
599,9.97852,1.48774,
600,10.0186,1.50482,931.15
601,9.92853,1.47245,
602,9.90851,1.47241,929.15
603,9.88861,1.48483,
604,9.79858,1.44927,926.15
605,9.73859,1.45494,
606,9.70862,1.46784,922.15
607,9.67865,1.45544,
608,9.56866,1.46522,919.65
609,9.51868,1.45368,
610,9.46869,1.42459,921.65
611,9.4787,1.39571,
612,9.43872,1.4262,919.65
613,9.45874,1.41596,
614,9.38873,1.3962,918.15
615,9.3587,1.41528,
616,9.29871,1.40468,915.15
617,9.2887,1.40531,
618,9.2088,1.40823,910.65
619,9.15875,1.38662,
620,9.12878,1.38572,905.65
621,9.06879,1.38268,
622,9.00885,1.39446,898.65
623,8.99884,1.38772,
624,8.90881,1.33253,890.65
625,8.83893,1.37266,
626,8.84888,1.34533,882.65
627,8.82892,1.34743,
628,8.79889,1.34774,874.15
629,8.79889,1.36232,
630,8.72888,1.34353,866.15
631,8.58899,1.33951,
632,8.59894,1.35029,857.65
633,8.59894,1.37381,
634,8.50897,1.36408,850.15
635,8.409,1.35817,
636,8.43896,1.34322,843.65
637,8.43896,1.33854,
638,8.42896,1.30892,837.15
639,8.35901,1.3402,
640,8.289,1.29935,831.15
641,8.26904,1.28237,
642,8.25903,1.3028,825.15
643,8.229,1.27585,
644,8.14911,1.30668,817.15
645,8.08911,1.28869,
646,8.06909,1.31396,810.15
647,8.0191,1.29354,
648,7.99915,1.30154,805.65
649,7.98914,1.28431,
650,7.94916,1.27964,802.15
651,7.85913,1.28057,
652,7.83917,1.26688,798.15
653,7.83917,1.27608,
654,7.75922,1.27376,792.65
655,7.72919,1.24577,
656,7.72919,1.25213,792.65
657,7.72919,1.23984,
658,7.66919,1.22859,786.65
659,7.6192,1.22525,
660,7.53925,1.26749,779.65
661,7.50928,1.24008,
662,7.46924,1.24066,773.65
663,7.40924,1.24668,
664,7.39929,1.24501,768.65
665,7.40924,1.2353,
666,7.36932,1.23382,764.65
667,7.32935,1.20671,
668,7.26935,1.22801,763.15
669,7.20935,1.24791,
670,7.15936,1.23256,757.15
671,7.0694,1.26302,
672,7.01941,1.24597,753.65
673,7.05939,1.2216,
674,7.04938,1.22643,748.65
675,7.01941,1.24628,
676,6.89948,1.22444,746.65
677,6.88947,1.2348,
678,6.86945,1.21426,742.15
679,6.82947,1.2005,
680,6.80945,1.21663,738.65
681,6.78943,1.20223,
682,6.75946,1.21078,735.65
683,6.69952,1.17977,
684,6.68951,1.19342,733.15
685,6.5296,1.1712,
686,6.5495,1.185,733.15
687,6.55951,1.18765,
688,6.48956,1.17612,730.15
689,6.45959,1.18478,
690,6.43958,1.19999,727.65
691,6.3996,1.18213,
692,6.38959,1.18841,726.15
693,6.24963,1.16024,
694,6.26965,1.19645,725.15
695,6.28961,1.19131,
696,6.22961,1.19598,724.15
697,6.14966,1.17233,
698,6.16962,1.16999,720.65
699,6.13965,1.14408,
700,6.09967,1.14564,715.15
701,6.10962,1.13212,
702,6.02972,1.1173,711.65
703,6.0097,1.13205,
704,5.99969,1.14535,709.65
705,5.94971,1.12659,
706,5.9397,1.11672,707.65
707,5.84973,1.12132,
708,5.83978,1.11584,707.15
709,5.78973,1.11928,
710,5.78973,1.11027,707.15
711,5.74976,1.11828,
712,5.74976,1.10404,704.65
713,5.73975,1.09258,
714,5.69977,1.08824,704.65
715,5.6098,1.08662,
716,5.59979,1.10231,702.65
717,5.52985,1.08726,
718,5.51984,1.09198,703.65
719,5.50983,1.07164,
720,5.42987,1.0758,701.65
721,5.3999,1.07847,
722,5.36987,1.08506,701.15
723,5.38989,1.078,
724,5.36987,1.08246,699.15
725,5.2699,1.07104,
726,5.24994,1.0499,699.15
727,5.24994,1.05302,
728,5.19995,1.07174,700.15
729,5.18994,1.05862,
730,5.15991,1.03789,700.15
731,5.16992,1.03775,
732,5.13995,1.03078,697.65
733,5.10992,1.0343,
734,5.05994,1.04116,695.15
735,5.02002,1.02719,
736,5.01001,1.00346,694.15
737,4.97998,1.01497,
738,4.96002,1.01686,690.65
739,4.92999,1.01009,
740,4.92999,1.0144,689.15
741,4.87,1.02005,
742,4.84998,1.00277,687.65
743,4.82007,1.0096,
744,4.78009,1.02581,684.65
745,4.74005,1.0084,
746,4.68005,1.02569,682.15
747,4.62012,1.00503,
748,4.62012,1.01693,682.65
749,4.57013,0.978432,
750,4.6001,0.99652,684.15
751,4.6001,1.00561,
752,4.52014,1.00546,684.15
753,4.43011,0.986731,
754,4.43011,0.98402,681.15
755,4.46014,0.994293,
756,4.3902,0.985811,678.65
757,4.38019,0.992931,
758,4.35016,0.957218,678.15
759,4.36017,0.953345,
760,4.3302,0.951484,675.65
761,4.29016,0.947515,
762,4.29016,0.961295,673.65
763,4.29016,0.950952,
764,4.21021,0.942281,671.15
765,4.20026,0.943364,
766,4.16022,0.934256,671.65
767,4.13025,0.927294,
768,4.10022,0.935409,671.15
769,4.09027,0.9373,
770,4.07025,0.933945,671.65
771,4.04022,0.945832,
772,3.9903,0.93123,670.15
773,3.96033,0.94989,
774,3.96033,0.92047,668.65
775,3.95032,0.916334,
776,3.91028,0.90794,666.15
777,3.8703,0.9131,
778,3.83032,0.902627,664.15
779,3.8103,0.890501,
780,3.70038,0.887311,663.15
781,3.73035,0.90195,
782,3.75037,0.914522,660.15
783,3.67035,0.871675,
784,3.60034,0.883858,659.65
785,3.64038,0.870759,
786,3.64038,0.867929,659.15
787,3.56042,0.874849,
788,3.59039,0.861683,656.65
789,3.57043,0.848874,
790,3.54041,0.85099,654.65
791,3.55042,0.856908,
792,3.51044,0.852036,654.15
793,3.49042,0.853008,
794,3.50043,0.86632,654.65
795,3.45044,0.849745,
796,3.4104,0.854441,653.65
797,3.38043,0.849281,
798,3.36047,0.842318,652.65
799,3.37042,0.836705,
800,3.3205,0.8243,652.15
801,3.29047,0.821397,
802,3.28052,0.823125,650.65
803,3.24048,0.810522,
804,3.24048,0.808219,650.15
805,3.22046,0.802107,
806,3.17047,0.790363,649.15
807,3.15057,0.802089,
808,3.10052,0.784113,649.15
809,3.09058,0.78855,
810,3.10052,0.792519,647.65
811,3.06055,0.776123,
812,3.02057,0.766159,647.15
813,3.05054,0.770105,
814,2.99054,0.763354,646.15
815,3.01056,0.75986,
816,3.01056,0.745855,646.15
817,2.96057,0.734465,
818,2.96057,0.729998,646.15
819,2.94061,0.713976,
820,2.90063,0.726006,646.65
821,2.9306,0.713831,
822,2.87061,0.715397,646.15
823,2.88062,0.708951,
824,2.87061,0.70675,646.15
825,2.8606,0.709303,
826,2.83063,0.6925,646.15
827,2.8006,0.694432,
828,2.71069,0.696976,646.65
829,2.77063,0.66697,
830,2.7406,0.68409,645.65
831,2.75061,0.664585,
832,2.70068,0.663171,644.65
833,2.71069,0.661197,
834,2.67065,0.659715,643.65
835,2.6507,0.666505,
836,2.66064,0.669395,643.15
837,2.5907,0.659691,
838,2.60065,0.665124,642.15
839,2.5907,0.651396,
840,2.62067,0.655543,642.15
841,2.5907,0.660109,
842,2.60065,0.654518,641.15
843,2.57068,0.642365,
844,-0.12854,0.648413,640.65
845,-0.178528,0.65078,
846,2.99054,0.639851,640.15
847,3.31049,0.651182,
848,3.2605,0.642399,640.15
849,3.22046,0.628507,
850,3.19049,0.644318,639.65
851,3.22046,0.627686,
852,3.2605,0.623516,638.65
853,3.22046,0.637296,
854,3.2005,0.630692,638.65
855,3.19049,0.630136,
856,3.19049,0.629626,637.65
857,3.19049,0.635058,
858,3.12054,0.633121,637.15
859,3.13055,0.634083,
860,3.10052,0.628827,636.15
861,3.13055,0.624311,
862,3.12054,0.627327,636.15
863,3.04053,0.621845,
864,3.05054,0.614555,634.65
865,3.07056,0.614006,
866,3.07056,0.618677,634.15
867,3.02057,0.608945,
868,2.98053,0.610512,632.65
869,3.00055,0.597315,
870,2.98053,0.599484,632.65
871,2.97052,0.591049,
872,2.96057,0.592804,632.65
873,2.95056,0.591838,
874,2.890625,0.576765,631.65
875,2.90063,0.600482,
876,2.90063,0.589275,630.15
877,2.88062,0.586068,
878,2.8606,0.582384,630.15
879,2.8606,0.578776,
880,2.84064,0.567046,630.15
881,2.82062,0.564228,
882,2.81061,0.563521,630.15
883,2.78064,0.55505,
884,2.81061,0.562071,629.15
885,2.71069,0.566639,
886,2.67065,0.570992,628.15
887,2.77063,0.557703,
888,2.70068,0.564433,626.65
889,2.72064,0.55787,
890,2.73065,0.562156,626.65
891,2.70068,0.563413,
892,2.68066,0.556494,625.65
893,2.69067,0.55833,
894,2.66064,0.557547,626.65
895,2.63068,0.561939,
896,2.64069,0.56482,627.65
897,2.6507,0.565474,
898,2.5907,0.552333,628.65
899,2.56067,0.56218,
900,2.52075,0.557616,628.15
901,2.51074,0.555487,
902,2.52075,0.559082,627.65
903,2.52075,0.564141,
904,2.51074,0.554966,626.65
905,2.50073,0.556536,
906,2.44073,0.557404,625.65
907,2.52075,0.552582,
908,2.52075,0.554668,625.15
909,2.45074,0.549962,
910,2.45074,0.543158,624.15
911,2.39075,0.536311,
912,2.42072,0.550474,624.15
913,2.41071,0.545679,
914,2.44073,0.537054,624.15
915,2.40076,0.536899,
916,2.41071,0.52532,622.65
917,2.41071,0.531147,
918,2.31079,0.522255,623.15
919,2.34076,0.520591,
920,2.32074,0.51768,624.15
921,2.32074,0.516073,
922,2.27081,0.51488,624.65
923,2.29077,0.516779,
924,2.28082,0.515844,623.15
925,2.24078,0.506822,
926,2.2608,0.510348,624.15
927,2.2608,0.499649,
928,2.24078,0.496272,624.15
929,2.21082,0.504785,
930,2.18079,0.492829,622.65
931,2.21082,0.492858,
932,2.17078,0.490225,622.15
933,2.21082,0.491518,
934,2.21082,0.491646,621.15
935,2.1908,0.483705,
936,2.18079,0.477783,620.15
937,2.15082,0.480922,
938,2.20081,0.4752491,620.15
939,2.15082,0.470487,
940,2.15082,0.46617,619.15
941,2.15082,0.464802,
942,2.15082,0.458344,618.65
943,2.1308,0.458397,
944,2.09088,0.456169,618.15
945,2.08087,0.453654,
946,2.04083,0.457902,618.15
947,2.07086,0.440797,
948,2.06085,0.447413,618.15
949,2.06085,0.44264,
950,2.04083,0.43861,618.15
951,1.92084,0.443938,
952,2.01086,0.443568,618.15
953,1.97083,0.446178,
954,1.95087,0.442942,618.15
955,1.97083,0.433637,
956,1.95087,0.433953,617.65
957,1.97083,0.425729,
958,1.92084,0.417486,618.15
959,1.97083,0.411547,
960,1.92084,0.418378,618.65
961,1.99084,0.413554,
962,1.97083,0.404602,618.65
963,1.89087,0.399826,
964,1.89087,0.405058,618.65
965,1.8609,0.401914,
966,1.89087,0.404591,618.65
967,1.91083,0.398668,
968,1.92084,0.404365,619.15
969,1.92084,0.399205,
970,1.92084,0.402098,619.65
971,1.88092,0.403214,
972,1.82092,0.397746,619.65
973,1.87091,0.400793,
974,1.85089,0.396979,619.15
975,1.87091,0.387582,
976,1.85089,0.38816,618.15
977,1.88092,0.390657,
978,1.84094,0.392249,617.65
979,1.78094,0.397118,
980,1.81091,0.403326,617.65
981,1.81091,0.397995,
982,1.79089,0.393465,616.65
983,1.78094,0.391823,
984,1.71094,0.39706,615.65
985,1.75092,0.389974,
986,1.76093,0.395018,614.15
987,1.77094,0.398066,
988,1.75092,0.397786,614.15
989,1.75092,0.392298,
990,1.75092,0.394609,615.15
991,1.74091,0.39622,
992,1.74091,0.394425,615.65
993,1.70093,0.391276,
994,1.72089,0.394938,615.15
995,1.7309,0.389497,
996,1.64099,0.382984,615.65
997,1.651,0.384904,
998,1.61096,0.373944,615.65
999,1.64099,0.379402,
1000,1.67096,0.36986,615.15
1001,1.66095,0.360897,
1002,1.66095,0.359581,614.15
1003,1.68091,0.349909,
1004,1.68091,0.347256,614.15
1005,1.68091,0.340029,
1006,1.651,0.339325,613.15
1007,1.64099,0.328347,
1008,1.62097,0.322512,613.15
1009,1.651,0.328725,
1010,1.62097,0.328839,612.15
1011,1.63098,0.323839,
1012,1.63098,0.323785,610.65
1013,1.62097,0.321216,
1014,1.62097,0.323167,610.15
1015,1.62097,0.316676,
1016,1.62097,0.317666,610.65
1017,1.591,0.317721,
1018,1.61096,0.311513,610.65
1019,1.53101,0.305528,
1020,1.56097,0.307159,610.15
1021,1.591,0.298308,
1022,1.55096,0.303321,609.15
1023,1.55096,0.302873,
1024,1.521,0.304214,608.15
1025,1.62097,0.302832,
1026,1.57098,0.299885,610.15
1027,1.521,0.305268,
1028,1.47095,0.302431,610.15
1029,1.521,0.301164,
1030,1.53101,0.30711,609.65
1031,1.55096,0.309964,
1032,1.521,0.305737,611.65
1033,1.50098,0.301494,
1034,1.54095,0.308585,612.65
1035,1.53101,0.303643,
1036,1.53101,0.305228,612.65
1037,1.53101,0.305226,
1038,1.49097,0.304397,612.15
1039,1.49097,0.301832,
1040,1.51099,0.297061,611.65
1041,1.49097,0.297465,
1042,1.50098,0.294847,611.65
1043,1.48096,0.296098,
1044,1.45105,0.295488,611.65
1045,1.48096,0.29584,
1046,1.43103,0.296777,611.65
1047,1.48096,0.290852,
1048,1.49097,0.286298,610.65
1049,1.49097,0.284095,
1050,1.46106,0.277626,610.65
1051,1.47095,0.276115,
1052,1.47095,0.276156,609.65
1053,1.43103,0.275306,
1054,1.45105,0.277188,609.65
1055,1.45105,0.271587,
1056,1.43103,0.264244,609.65
1057,1.40106,0.267371,
1058,1.41101,0.264227,610.15
1059,1.44104,0.267679,
1060,1.43103,0.267519,609.15
1061,1.43103,0.265301,
1062,1.45105,0.275262,609.15
1063,1.37103,0.261687,
1064,1.39105,0.265775,608.15
1065,1.39105,0.264076,
1066,1.45105,0.264008,608.15
1067,1.43103,0.26618,
1068,1.41101,0.26826,607.15
1069,1.35101,0.257712,
1070,1.36102,0.25769,608.15
1071,1.37103,0.253836,
1072,1.40106,0.25496,608.15
1073,1.38104,0.251981,
1074,1.38104,0.249446,609.65
1075,1.38104,0.254031,
1076,1.42102,0.253202,609.65
1077,1.39105,0.252498,
1078,1.38104,0.248865,610.15
1079,1.36102,0.249715,
1080,1.35101,0.251496,610.15
1081,1.37103,0.248693,
1082,1.36102,0.2453232,611.65
1083,1.35101,0.249605,
1084,1.36102,0.250283,609.65
1085,1.34106,0.246202,
1086,1.36102,0.245848,610.15
1087,1.33105,0.242396,
1088,1.32104,0.237408,610.65
1089,1.32104,0.23891,
1090,1.32104,0.23592,610.15
1091,1.32104,0.233676,
1092,1.30103,0.235504,610.15
1093,1.33105,0.235101,
1094,1.33105,0.2442062,609.65
1095,1.29102,0.249913,
1096,1.30103,0.250375,608.15
1097,1.34106,0.2523242,
1098,1.28107,0.253492,608.15
1099,1.2511,0.253982,
1100,1.30103,0.258148,609.15
1101,1.32104,0.2514254,
1102,1.29102,0.25115,608.15
1103,1.27106,0.250183,
1104,1.2511,0.250161,607.15
1105,1.27106,0.256264,
1106,1.26105,0.245817,608.15
1107,1.27106,0.247945,
1108,1.2511,0.245295,608.15
1109,1.21112,0.240844,
1110,1.17108,0.239932,608.15
1111,1.20111,0.244888,
1112,1.22107,0.241884,608.15
1113,1.27106,0.244887,
1114,1.21112,0.241775,608.15
1115,1.17108,0.238364,
1116,1.1311,0.239008,608.15
1117,1.20111,0.238916,
1118,1.30103,0.236539,607.15
1119,1.28107,0.23829,
1120,1.26105,0.235533,607.15
1121,1.21112,0.235461,
1122,1.22107,0.234862,607.15