File: PMMA/Validation_Results/EDF/EDF_Gasification_q25_Mass.csv
Time,Mass
[s],[g]
0.00,26.8
1.01,26.8
2.04,26.8
3.09,26.8
4.11,26.8
5.15,26.8
6.15,26.8
7.17,26.8
8.20,26.8
9.26,26.8
10.28,26.8
11.31,26.8
12.36,26.8
13.36,26.8
14.39,26.8
15.42,26.8
16.48,26.8
17.48,26.8
18.50,26.8
19.54,26.8
20.59,26.8
21.65,26.8
22.66,26.8
23.69,26.8
24.73,26.8
25.78,26.8
26.85,26.8
27.85,26.8
28.87,26.8
29.90,26.8
30.95,26.8
32.01,26.8
33.08,26.8
34.08,26.8
35.09,26.8
36.12,26.8
37.16,26.8
38.21,26.8
39.28,26.8
40.35,26.8
41.44,26.8
42.46,26.8
43.48,26.8
44.51,26.8
45.56,26.8
46.61,26.8
47.68,26.8
48.76,26.8
49.85,26.8
50.95,26.8
51.95,26.8
52.95,26.8
53.95,26.8
54.95,26.8
55.95,26.8
56.95,26.8
57.95,26.8
58.95,26.8
59.95,26.8
60.95,26.8
61.95,26.8
62.95,26.8
63.95,26.8
65.05,26.8
66.15,26.8
67.25,26.8
68.35,26.8
69.45,26.8
70.55,26.8
71.65,26.8
72.75,26.7995
73.85,26.7995
74.95,26.7995
76.05,26.7995
77.15,26.7995
78.25,26.7995
79.35,26.7995
80.45,26.7991
81.55,26.7991
82.65,26.7991
83.75,26.7991
84.85,26.7986
85.95,26.7986
87.05,26.7982
88.15,26.7982
89.25,26.7977
90.35,26.7977
91.45,26.7972
92.55,26.7968
93.65,26.7963
94.75,26.7958
95.85,26.7954
96.95,26.7949
98.05,26.7945
99.15,26.7935
100.25,26.7931
101.35,26.7921
102.45,26.7912
103.55,26.7903
104.65,26.7889
105.75,26.788
106.85,26.7866
107.95,26.7852
109.05,26.7834
110.15,26.782
111.25,26.7801
112.35,26.7778
113.45,26.776
114.55,26.7737
115.65,26.7709
116.75,26.7686
117.85,26.7653
118.95,26.7626
120.05,26.7589
121.15,26.7556
122.25,26.7519
123.35,26.7478
124.45,26.7436
125.55,26.739
126.65,26.7344
127.75,26.7293
128.85,26.7238
129.95,26.7182
131.05,26.7122
132.15,26.7062
133.25,26.6997
134.35,26.6928
135.45,26.6854
136.55,26.678
137.65,26.6706
138.75,26.6623
139.85,26.654
140.95,26.6452
142.05,26.636
143.15,26.6267
144.25,26.617
145.35,26.6069
146.45,26.5967
147.55,26.5861
148.65,26.575
149.75,26.5639
150.85,26.5519
151.95,26.5403
153.05,26.5278
154.15,26.5154
155.25,26.5024
156.35,26.489
157.45,26.4756
158.55,26.4618
159.65,26.4479
160.75,26.4331
161.85,26.4188
162.95,26.4035
164.05,26.3883
165.15,26.3726
166.25,26.3569
167.35,26.3407
168.45,26.3245
169.55,26.3079
170.65,26.2908
171.75,26.2737
172.85,26.2561
173.95,26.2381
175.05,26.2201
176.15,26.2021
177.25,26.1836
178.35,26.1647
179.45,26.1457
180.55,26.1263
181.65,26.1069
182.75,26.087
183.85,26.0672
184.95,26.0468
186.05,26.0265
187.15,26.0057
188.25,25.9844
189.35,25.9632
190.45,25.9419
191.55,25.9202
192.65,25.8985
193.75,25.8763
194.85,25.8537
195.95,25.831
197.05,25.8084
198.15,25.7853
199.25,25.7622
200.35,25.7386
201.45,25.7151
202.55,25.691
203.65,25.667
204.75,25.643
205.85,25.618
206.95,25.5935
208.05,25.5686
209.15,25.5432
210.25,25.5182
211.35,25.4923
212.45,25.4665
213.55,25.4406
214.65,25.4147
215.75,25.3879
216.85,25.3616
217.95,25.3348
219.05,25.308
220.15,25.2807
221.25,25.2535
222.35,25.2257
223.45,25.198
224.55,25.1698
225.65,25.1416
226.75,25.1134
227.85,25.0848
228.95,25.0562
230.05,25.027
231.15,24.9979
232.25,24.9688
233.35,24.9392
234.45,24.9097
235.55,24.8796
236.65,24.8496
237.75,24.8191
238.85,24.7886
239.95,24.7581
241.05,24.7272
242.15,24.6962
243.25,24.6652
244.35,24.6338
245.45,24.6024
246.55,24.5705
247.65,24.5386
248.75,24.5063
249.85,24.4739
250.95,24.4416
252.05,24.4088
253.15,24.376
254.25,24.3432
255.35,24.3099
256.35,24.2794
257.35,24.2489
258.35,24.2184
259.35,24.1875
260.35,24.1565
261.35,24.1255
262.35,24.0941
263.35,24.0627
264.35,24.0313
265.35,23.9994
266.35,23.9675
267.35,23.9356
268.35,23.9038
269.35,23.8714
270.35,23.8386
271.35,23.8063
272.35,23.7734
273.35,23.7406
274.35,23.7078
275.35,23.6746
276.35,23.6413
277.35,23.6076
278.35,23.5743
279.35,23.5406
280.35,23.5064
281.35,23.4726
282.35,23.4384
283.35,23.4043
284.35,23.3696
285.35,23.3349
286.35,23.3003
287.35,23.2656
288.35,23.2305
289.35,23.1954
290.35,23.1598
291.35,23.1247
292.35,23.0891
293.35,23.0535
294.35,23.0175
295.35,22.9815
296.35,22.9454
297.35,22.9094
298.35,22.8729
299.35,22.8364
300.35,22.7999
301.35,22.7629
302.35,22.7259
303.35,22.689
304.35,22.652
305.35,22.6146
306.35,22.5772
307.35,22.5397
308.35,22.5023
309.35,22.4644
310.35,22.4265
311.35,22.3882
312.35,22.3503
313.35,22.3119
314.35,22.2736
315.35,22.2352
316.35,22.1964
317.35,22.1576
318.35,22.1188
319.35,22.08
320.35,22.0407
321.35,22.0019
322.35,21.9626
323.35,21.9229
324.35,21.8836
325.35,21.8438
326.35,21.8041
327.35,21.7644
328.35,21.7246
329.35,21.6844
330.35,21.6442
331.35,21.604
332.35,21.5638
333.35,21.5236
334.35,21.483
335.35,21.4423
336.35,21.4016
337.35,21.361
338.35,21.3199
339.35,21.2792
340.35,21.2381
341.35,21.197
342.35,21.1558
343.35,21.1147
344.35,21.0731
345.35,21.0315
346.35,20.9904
347.35,20.9488
348.35,20.9068
349.35,20.8652
350.35,20.8236
351.35,20.7816
352.35,20.7395
353.35,20.6979
354.35,20.6559
355.35,20.6134
356.35,20.5713
357.35,20.5293
358.35,20.4868
359.35,20.4442
360.35,20.4022
361.35,20.3597
362.35,20.3172
363.35,20.2747
364.35,20.2317
365.35,20.1892
366.35,20.1467
367.35,20.1037
368.35,20.0607
369.35,20.0182
370.35,19.9752
371.35,19.9323
372.35,19.8893
373.35,19.8463
374.35,19.8029
375.35,19.7599
376.35,19.7169
377.35,19.6735
378.35,19.6305
379.35,19.5871
380.35,19.5437
381.35,19.5007
382.35,19.4573
383.35,19.4138
384.35,19.3704
385.35,19.327
386.35,19.2835
387.35,19.2401
388.35,19.1967
389.35,19.1528
390.35,19.1093
391.35,19.0659
392.35,19.022
393.35,18.9786
394.35,18.9347
395.35,18.8912
396.35,18.8473
397.35,18.8039
398.35,18.76
399.35,18.7161
400.35,18.6722
401.35,18.6288
402.35,18.5849
403.35,18.541
404.35,18.4971
405.35,18.4532
406.35,18.4093
407.35,18.3654
408.35,18.3215
409.35,18.2776
410.35,18.2337
411.35,18.1898
412.35,18.1459
413.35,18.1016
414.35,18.0577
415.35,18.0138
416.35,17.9699
417.35,17.926
418.35,17.8816
419.35,17.8377
420.35,17.7938
421.35,17.7495
422.35,17.7056
423.35,17.6617
424.35,17.6173
425.35,17.5734
426.35,17.529
427.35,17.4852
428.35,17.4408
429.35,17.3969
430.35,17.3525
431.35,17.3086
432.35,17.2643
433.35,17.2204
434.35,17.176
435.35,17.1321
436.35,17.0878
437.35,17.0434
438.35,16.9995
439.35,16.9552
440.35,16.9113
441.35,16.8669
442.35,16.8225
443.35,16.7786
444.35,16.7343
445.35,16.6899
446.35,16.646
447.35,16.6017
448.35,16.5573
449.35,16.5134
450.35,16.4691
451.35,16.4247
452.35,16.3803
453.35,16.3364
454.35,16.2921
455.35,16.2477
456.35,16.2034
457.35,16.1595
458.35,16.1151
459.35,16.0708
460.35,16.0264
461.35,15.9825
462.35,15.9381
463.35,15.8938
464.35,15.8494
465.35,15.8051
466.35,15.7612
467.35,15.7168
468.35,15.6725
469.35,15.6281
470.35,15.5837
471.35,15.5394
472.35,15.4955
473.35,15.4511
474.35,15.4068
475.35,15.3624
476.35,15.318
477.35,15.2737
478.35,15.2293
479.35,15.185
480.35,15.1406
481.35,15.0967
482.35,15.0524
483.35,15.008
484.35,14.9636
485.35,14.9193
486.35,14.8749
487.35,14.8306
488.35,14.7862
489.35,14.7418
490.35,14.6975
491.35,14.6531
492.35,14.6088
493.35,14.5644
494.35,14.5201
495.35,14.4757
496.35,14.4313
497.35,14.387
498.35,14.3431
499.35,14.2987
500.35,14.2544
501.35,14.21
502.35,14.1656
503.35,14.1213
504.35,14.0769
505.35,14.0321
506.35,13.9878
507.35,13.9434
508.35,13.899
509.35,13.8547
510.35,13.8103
511.35,13.766
512.35,13.7216
513.35,13.6772
514.35,13.6329
515.35,13.5885
516.35,13.5442
517.35,13.4998
518.35,13.4554
519.35,13.4111
520.35,13.3667
521.35,13.3224
522.35,13.278
523.35,13.2332
524.35,13.1888
525.35,13.1445
526.35,13.1001
527.35,13.0558
528.35,13.0114
529.35,12.967
530.35,12.9227
531.35,12.8783
532.35,12.8335
533.35,12.7891
534.35,12.7448
535.35,12.7004
536.35,12.6561
537.35,12.6117
538.35,12.5674
539.35,12.5225
540.35,12.4782
541.35,12.4338
542.35,12.3895
543.35,12.3451
544.35,12.3007
545.35,12.2559
546.35,12.2116
547.35,12.1672
548.35,12.1228
549.35,12.0785
550.35,12.0337
551.35,11.9893
552.35,11.9449
553.35,11.9006
554.35,11.8562
555.35,11.8114
556.35,11.767
557.35,11.7227
558.35,11.6783
559.35,11.6335
560.35,11.5892
561.35,11.5448
562.35,11.5004
563.35,11.4561
564.35,11.4113
565.35,11.3669
566.35,11.3225
567.35,11.2782
568.35,11.2334
569.35,11.189
570.35,11.1446
571.35,11.0998
572.35,11.0555
573.35,11.0111
574.35,10.9667
575.35,10.9219
576.35,10.8776
577.35,10.8332
578.35,10.7888
579.35,10.744
580.35,10.6997
581.35,10.6553
582.35,10.611
583.35,10.5661
584.35,10.5218
585.35,10.4774
586.35,10.4326
587.35,10.3882
588.35,10.3439
589.35,10.2995
590.35,10.2547
591.35,10.2103
592.35,10.166
593.35,10.1216
594.35,10.0768
595.35,10.0324
596.35,9.98808
597.35,9.94326
598.35,9.8989
599.35,9.85454
600.35,9.81019
601.35,9.76537
602.35,9.72101
603.35,9.67665
604.35,9.63229
605.35,9.58747
606.35,9.54311
607.35,9.49875
608.35,9.45439
609.35,9.41003
610.35,9.36521
611.35,9.32086
612.35,9.2765
613.35,9.23214
614.35,9.18778
615.35,9.14296
616.35,9.0986
617.35,9.05424
618.35,9.00988
619.35,8.96552
620.35,8.92117
621.35,8.87634
622.35,8.83199
623.35,8.78763
624.35,8.74327
625.35,8.69891
626.35,8.65455
627.35,8.61019
628.35,8.56583
629.35,8.52148
630.35,8.47712
631.35,8.43276
632.35,8.3884
633.35,8.34404
634.35,8.29968
635.35,8.25532
636.35,8.21097
637.35,8.16661
638.35,8.12225
639.35,8.07789
640.35,8.03399
641.35,7.98963
642.35,7.94528
643.35,7.90092
644.35,7.85656
645.35,7.81266
646.35,7.7683
647.35,7.72394
648.35,7.68005
649.35,7.63569
650.35,7.59133
651.35,7.54743
652.35,7.50308
653.35,7.45918
654.35,7.41482
655.35,7.37092
656.35,7.32657
657.35,7.28267
658.35,7.23877
659.35,7.19441
660.35,7.15052
661.35,7.10662
662.35,7.06272
663.35,7.01883
664.35,6.97447
665.35,6.93057
666.35,6.88668
667.35,6.84278
668.35,6.79888
669.35,6.75545
670.35,6.71155
671.35,6.66766
672.35,6.62376
673.35,6.58032
674.35,6.53643
675.35,6.49299
676.35,6.4491
677.35,6.40566
678.35,6.36177
679.35,6.31833
680.35,6.2749
681.35,6.23146
682.35,6.18803
683.35,6.14459
684.35,6.10116
685.35,6.05772
686.35,6.01429
687.35,5.97086
688.35,5.92788
689.35,5.88445
690.35,5.84148
691.35,5.7985
692.35,5.75507
693.35,5.7121
694.35,5.66912
695.35,5.62615
696.35,5.58318
697.35,5.54067
698.35,5.4977
699.35,5.45472
700.35,5.41221
701.35,5.3697
702.35,5.32719
703.35,5.28422
704.35,5.24217
705.35,5.19966
706.35,5.15715
707.35,5.1151
708.35,5.07259
709.35,5.03054
710.35,4.9885
711.35,4.94645
712.35,4.9044
713.35,4.86235
714.35,4.82077
715.35,4.77918
716.35,4.73759
717.35,4.69601
718.35,4.65442
719.35,4.61283
720.35,4.57171
721.35,4.53012
722.35,4.489
723.35,4.44788
724.35,4.40721
725.35,4.36609
726.35,4.32543
727.35,4.28477
728.35,4.2441
729.35,4.2039
730.35,4.16324
731.35,4.12304
732.35,4.08284
733.35,4.04264
734.35,4.0029
735.35,3.96317
736.35,3.92343
737.35,3.88369
738.35,3.84441
739.35,3.80514
740.35,3.76586
741.35,3.72659
742.35,3.68777
743.35,3.64896
744.35,3.61014
745.35,3.57179
746.35,3.53344
747.35,3.49509
748.35,3.4572
749.35,3.41931
750.35,3.38142
751.35,3.34353
752.35,3.3061
753.35,3.26868
754.35,3.23171
755.35,3.19474
756.35,3.15778
757.35,3.12128
758.35,3.08477
759.35,3.04873
760.35,3.01223
761.35,2.97665
762.35,2.94061
763.35,2.90503
764.35,2.86991
765.35,2.83479
766.35,2.79968
767.35,2.76502
768.35,2.73037
769.35,2.69617
770.35,2.66198
771.35,2.62779
772.35,2.59406
773.35,2.56079
774.35,2.52706
775.35,2.49425
776.35,2.46144
777.35,2.42863
778.35,2.39629
779.35,2.36394
780.35,2.33206
781.35,2.30018
782.35,2.26876
783.35,2.2378
784.35,2.20638
785.35,2.17588
786.35,2.14539
787.35,2.11489
788.35,2.08486
789.35,2.05528
790.35,2.02571
791.35,1.9966
792.35,1.96749
793.35,1.93884
794.35,1.91019
795.35,1.88201
796.35,1.85382
797.35,1.8261
798.35,1.79883
799.35,1.77157
800.35,1.74477
801.35,1.71797
802.35,1.69163
803.35,1.6653
804.35,1.63988
805.35,1.61401
806.35,1.58859
807.35,1.56364
808.35,1.53915
809.35,1.51466
810.35,1.49017
811.35,1.46661
812.35,1.44258
813.35,1.41948
814.35,1.39637
815.35,1.37327
816.35,1.35109
817.35,1.32845
818.35,1.30673
819.35,1.28501
820.35,1.2633
821.35,1.24204
822.35,1.22125
823.35,1.20046
824.35,1.18012
825.35,1.16026
826.35,1.14039
827.35,1.12052
828.35,1.10157
829.35,1.08217
830.35,1.06368
831.35,1.0452
832.35,1.02672
833.35,1.0087
834.35,0.991138
835.35,0.973579
836.35,0.956483
837.35,0.939386
838.35,0.922752
839.35,0.906117
840.35,0.889945
841.35,0.874234
842.35,0.858062
843.35,0.842814
844.35,0.827566
845.35,0.812317
846.35,0.797531
847.35,0.783207
848.35,0.768883
849.35,0.754559
850.35,0.740697
851.35,0.727297
852.35,0.713897
853.35,0.700497
854.35,0.687559
855.35,0.675083
856.35,0.662607
857.35,0.650131
858.35,0.638117
859.35,0.626103
860.35,0.614552
861.35,0.603
862.35,0.591448
863.35,0.580359
864.35,0.569269
865.35,0.558641
866.35,0.548014
867.35,0.537848
868.35,0.527683
869.35,0.517517
870.35,0.507814
871.35,0.49811
872.35,0.488869
873.35,0.479166
874.35,0.470386
875.35,0.461145
876.35,0.452366
877.35,0.444048
878.35,0.435269
879.35,0.426952
880.35,0.419097
881.35,0.410779
882.35,0.402924
883.35,0.395069
884.35,0.387676
885.35,0.380283
886.35,0.37289
887.35,0.365959
888.35,0.358566
889.35,0.352097
890.35,0.345166
891.35,0.338697
892.35,0.331766
893.35,0.325759
894.35,0.31929
895.35,0.313283
896.35,0.307276
897.35,0.301269
898.35,0.295262
899.35,0.289717
900.35,0.284172
901.35,0.278628
902.35,0.273545
903.35,0.268
904.35,0.262917
905.35,0.257834
906.35,0.253214
907.35,0.248131
908.35,0.24351
909.35,0.23889
910.35,0.234269
911.35,0.229648
912.35,0.22549
913.35,0.220869
914.35,0.21671
915.35,0.212552
916.35,0.208393
917.35,0.204697
918.35,0.200538
919.35,0.196841
920.35,0.193145
921.35,0.189448
922.35,0.185752
923.35,0.182055
924.35,0.178821
925.35,0.175586
926.35,0.17189
927.35,0.168655
928.35,0.165421
929.35,0.162648
930.35,0.159414
931.35,0.156641
932.35,0.153407
933.35,0.150634
934.35,0.147862
935.35,0.14509
936.35,0.142317
937.35,0.139545
938.35,0.136772
939.35,0.134462
940.35,0.13169
941.35,0.129379
942.35,0.127069
943.35,0.124759
944.35,0.122448
945.35,0.120138
946.35,0.117828
947.35,0.115517
948.35,0.113669
949.35,0.111359
950.35,0.10951
951.35,0.1072
952.35,0.105352
953.35,0.103503
954.35,0.101655
955.35,0.0998069
956.35,0.0979586
957.35,0.0961103
958.35,0.0942621
959.35,0.0924138
960.35,0.0910276
961.35,0.08917931
962.35,0.087331
963.35,0.0859448
964.35,0.0845586
965.35,0.0827103
966.35,0.0813241
967.35,0.0799379
968.35,0.0785517
969.35,0.0771655
970.35,0.07577931
971.35,0.0743931
972.35,0.0730069
973.35,0.07162069
974.35,0.0702345
975.35,0.0693103
976.35,0.0679241
977.35,0.0665379
978.35,0.0656138
979.35,0.0642276
980.35,0.0633034
981.35,0.0619172
982.35,0.0609931
983.35,0.060069
984.35,0.0586828
985.35,0.0577586
986.35,0.0568345
987.35,0.0559103
988.35,0.0549862
989.35,0.0540621
990.35,0.0531379
991.35,0.0522138
992.35,0.0512897
993.35,0.0503655
994.35,0.0494414
995.35,0.0485172
996.35,0.0475931
997.35,0.046669
998.35,0.0462069
999.35,0.0452828