File: PMMA/Validation_Results/EDF/EDF_Gasification_q50_MassLossRate.csv
Time,MLR
[s],[g/s/m2]
0.00,0.00
1.01,0.00
2.04,0.00
3.09,0.00
4.11,0.00
5.15,0.00
6.15,0.00
7.17,0.00
8.20,0.00
9.26,0.00
10.28,0.00
11.31,0.00
12.36,0.00
13.36,0.00
14.39,0.00
15.42,0.00
16.48,0.00
17.48,0.00
18.50,0.00
19.54,0.01
20.59,0.01
21.65,0.02
22.66,0.03
23.69,0.05
24.73,0.09
25.78,0.13
26.85,0.20
27.85,0.29
28.87,0.41
29.90,0.58
30.95,0.80
32.01,1.07
33.08,1.42
34.08,1.80
35.09,2.23
36.12,2.72
37.16,3.25
38.21,3.80
39.28,4.36
40.35,4.93
41.44,5.48
42.46,5.98
43.48,6.45
44.51,6.89
45.56,7.32
46.61,7.72
47.68,8.10
48.76,8.45
49.85,8.79
50.95,9.10
51.95,9.38
52.95,9.63
53.95,9.87
54.95,10.10
55.95,10.32
56.95,10.53
57.95,10.73
58.95,10.93
59.95,11.11
60.95,11.29
61.95,11.46
62.95,11.62
63.95,11.78
65.05,11.96
66.15,12.12
67.25,12.28
68.35,12.44
69.45,12.59
70.55,12.74
71.65,12.88
72.75,13.02
73.85,13.16
74.95,13.29
76.05,13.42
77.15,13.55
78.25,13.68
79.35,13.81
80.45,13.93
81.55,14.05
82.65,14.17
83.75,14.29
84.85,14.40
85.95,14.52
87.05,14.63
88.15,14.74
89.25,14.85
90.35,14.96
91.45,15.07
92.55,15.18
93.65,15.29
94.75,15.39
95.85,15.50
96.95,15.60
98.05,15.70
99.15,15.81
100.25,15.91
101.35,16.01
102.45,16.11
103.55,16.21
104.65,16.31
105.75,16.41
106.85,16.51
107.95,16.61
109.05,16.70
110.15,16.80
111.25,16.90
112.35,16.99
113.45,17.09
114.55,17.19
115.65,17.28
116.75,17.38
117.85,17.47
118.95,17.57
120.05,17.66
121.15,17.76
122.25,17.85
123.35,17.95
124.45,18.04
125.55,18.14
126.65,18.23
127.75,18.32
128.85,18.42
129.95,18.51
131.05,18.61
132.15,18.70
133.25,18.79
134.35,18.89
135.45,18.98
136.55,19.08
137.65,19.17
138.75,19.26
139.85,19.36
140.95,19.45
142.05,19.55
143.15,19.64
144.25,19.74
145.35,19.83
146.45,19.93
147.55,20.03
148.65,20.12
149.75,20.22
150.85,20.32
151.95,20.41
153.05,20.51
154.15,20.61
155.25,20.71
156.35,20.80
157.45,20.90
158.55,21.00
159.65,21.10
160.75,21.20
161.85,21.31
162.95,21.41
164.05,21.51
165.15,21.61
166.25,21.72
167.35,21.82
168.45,21.92
169.55,22.03
170.65,22.14
171.75,22.24
172.85,22.35
173.95,22.46
175.05,22.57
176.15,22.68
177.25,22.79
178.35,22.90
179.45,23.01
180.55,23.12
181.65,23.24
182.75,23.35
183.85,23.47
184.95,23.58
186.05,23.70
187.15,23.81
188.25,23.93
189.35,24.05
190.45,24.17
191.55,24.28
192.65,24.40
193.75,24.52
194.85,24.64
195.95,24.75
197.05,24.87
198.15,24.99
199.25,25.10
200.35,25.22
201.45,25.33
202.55,25.44
203.65,25.55
204.75,25.66
205.85,25.77
206.95,25.88
208.05,25.98
209.15,26.08
210.25,26.18
211.35,26.28
212.45,26.37
213.55,26.46
214.65,26.55
215.75,26.64
216.85,26.72
217.95,26.80
219.05,26.88
220.15,26.96
221.25,27.03
222.35,27.10
223.45,27.16
224.55,27.23
225.65,27.29
226.75,27.34
227.85,27.40
228.95,27.45
230.05,27.50
231.15,27.54
232.25,27.59
233.35,27.63
234.45,27.67
235.55,27.71
236.65,27.74
237.75,27.77
238.85,27.81
239.95,27.84
241.05,27.87
242.15,27.89
243.25,27.92
244.35,27.94
245.45,27.97
246.55,27.99
247.65,28.01
248.75,28.03
249.85,28.05
250.95,28.07
252.05,28.09
253.15,28.11
254.25,28.12
255.35,28.14
256.35,28.15
257.35,28.17
258.35,28.18
259.35,28.19
260.35,28.21
261.35,28.22
262.35,28.23
263.35,28.24
264.35,28.25
265.35,28.26
266.35,28.27
267.35,28.28
268.35,28.29
269.35,28.30
270.35,28.31
271.35,28.32
272.35,28.33
273.35,28.33
274.35,28.34
275.35,28.34
276.35,28.35
277.35,28.35
278.35,28.35
279.35,28.35
280.35,28.35
281.35,28.35
282.35,28.35
283.35,28.34
284.35,28.34
285.35,28.33
286.35,28.32
287.35,28.31
288.35,28.29
289.35,28.28
290.35,28.26
291.35,28.24
292.35,28.21
293.35,28.19
294.35,28.16
295.35,28.12
296.35,28.09
297.35,28.05
298.35,28.00
299.35,27.95
300.35,27.90
301.35,27.84
302.35,27.77
303.35,27.70
304.35,27.63
305.35,27.55
306.35,27.46
307.35,27.36
308.35,27.26
309.35,27.15
310.35,27.03
311.35,26.90
312.35,26.76
313.35,26.61
314.35,26.46
315.35,26.29
316.35,26.11
317.35,25.92
318.35,25.72
319.35,25.51
320.35,25.28
321.35,25.05
322.35,24.79
323.35,24.53
324.35,24.25
325.35,23.96
326.35,23.65
327.35,23.33
328.35,23.00
329.35,22.65
330.35,22.29
331.35,21.92
332.35,21.53
333.35,21.13
334.35,20.72
335.35,20.29
336.35,19.86
337.35,19.41
338.35,18.96
339.35,18.49
340.35,18.02
341.35,17.55
342.35,17.07
343.35,16.58
344.35,16.09
345.35,15.60
346.35,15.11
347.35,14.61
348.35,14.12
349.35,13.63
350.35,13.15
351.35,12.67
352.35,12.19
353.35,11.72
354.35,11.26
355.35,10.81
356.35,10.36
357.35,9.93
358.35,9.50
359.35,9.09
360.35,8.69
361.35,8.29
362.35,7.91
363.35,7.54
364.35,7.18
365.35,6.84
366.35,6.50
367.35,6.18
368.35,5.87
369.35,5.58
370.35,5.29
371.35,5.02
372.35,4.76
373.35,4.51
374.35,4.27
375.35,4.04
376.35,3.83
377.35,3.62
378.35,3.42
379.35,3.24
380.35,3.06
381.35,2.89
382.35,2.73
383.35,2.58
384.35,2.43
385.35,2.30
386.35,2.17
387.35,2.05
388.35,1.93
389.35,1.82
390.35,1.72
391.35,1.62
392.35,1.53
393.35,1.44
394.35,1.36
395.35,1.28
396.35,1.21
397.35,1.14
398.35,1.07
399.35,1.01
400.35,0.95
401.35,0.90
402.35,0.85
403.35,0.80
404.35,0.75
405.35,0.71
406.35,0.67
407.35,0.63
408.35,0.60
409.35,0.56
410.35,0.53
411.35,0.50
412.35,0.47
413.35,0.44
414.35,0.42
415.35,0.40
416.35,0.37
417.35,0.35
418.35,0.33
419.35,0.31
420.35,0.30
421.35,0.28
422.35,0.26
423.35,0.25
424.35,0.24
425.35,0.22
426.35,0.21
427.35,0.20