File: Non-charring/PMMA/Edinburgh/Edinburgh_Cone_25kW_3.csv
Time,Mass,HRR,Back Temp
[s],[g],[kW/m2],[C]
0,73.7871,0.1,17
1,72.6771,0.1,17
2,72.6571,0,16.9
3,72.6171,0.1,17
4.1,71.8371,0,17.1
5.1,66.7271,0.1,17.1
6.1,66.5071,0.1,17.1
7.1,71.0971,0.1,17.1
8.1,73.1071,0.1,17.1
9.1,73.5271,0,17.1
10.1,73.5571,-0.1,17.1
11.2,73.5371,-0.2,17.2
12.2,73.5171,0,17.2
13.2,73.5071,-0.1,17.2
14.2,73.4771,-0.1,17.2
15.2,73.4471,-0.1,17.2
16.2,73.4371,-0.1,17.2
17.2,73.4071,0,17.2
18.3,73.3871,0.2,17.2
19.3,73.3671,0,17.3
20.3,73.3471,-0.1,17.3
21.3,73.3271,-0.3,17.2
22.3,73.2971,-0.1,17.3
23.3,73.2771,-0.1,17.2
24.3,73.2471,0,17.3
25.3,73.2271,0,17.3
26.4,73.2171,-0.1,17.3
27.4,73.1971,-0.1,17.3
28.4,73.1871,-0.1,17.4
29.4,73.1771,-0.2,17.4
30.4,73.1571,-0.3,17.4
31.4,73.1271,-0.3,17.4
32.4,73.1071,-0.4,17.4
33.5,73.0971,-0.3,17.4
34.5,73.0871,-0.1,17.5
35.5,73.0671,-0.2,17.5
36.5,73.0571,-0.2,17.5
37.5,73.0571,-0.2,17.6
38.5,73.0571,-0.3,17.5
39.5,73.0471,-0.2,17.5
40.6,73.0371,-0.3,17.6
41.6,73.0271,-0.1,17.5
42.6,73.0271,-0.1,17.6
43.6,73.0271,0,17.6
44.6,73.0271,-0.1,17.6
45.6,73.0271,0.1,17.6
46.6,73.0171,0,17.7
47.7,73.0271,0.1,17.7
48.7,73.0371,0,17.7
49.7,73.0471,-0.1,17.7
50.7,73.0471,0,17.8
51.7,73.0571,0.1,17.8
52.7,73.0471,0,17.8
53.7,73.0371,0.2,17.9
54.8,73.0271,0.1,17.9
55.8,73.0371,0.1,17.9
56.8,73.0471,0,17.9
57.8,73.0571,0,18
58.8,73.0471,0.1,18
59.8,73.0571,-0.1,18
60.8,73.0571,-0.2,18
62.5,73.0471,-0.4,18.1
63.2,73.0471,-0.3,18.1
64,73.0571,-0.3,18.2
64.9,73.0571,-0.2,18.2
65.9,73.0571,-0.1,18.2
66.9,73.0571,-0.2,18.2
67.9,73.0571,-0.3,18.3
69,73.0571,-0.2,18.3
70,73.0371,0,18.3
71,73.0271,-0.2,18.3
72,73.0171,-0.2,18.4
73,73.0171,-0.3,18.4
74,73.0171,-0.2,18.5
75,73.0171,-0.1,18.5
76,73.0171,0,18.5
77.1,73.0271,0,18.6
78.1,73.0171,-0.3,18.6
79.1,73.0071,-0.2,18.6
80.1,73.0171,-0.1,18.7
81.1,73.0071,-0.3,18.7
82.1,73.0071,-0.1,18.8
83.1,73.0071,-0.3,18.9
84.2,73.0071,-0.3,18.9
85.2,72.9971,-0.3,18.9
86.2,72.9871,-0.2,18.9
87.2,72.9771,0,19
88.2,72.9771,0,19
89.2,72.9871,-0.1,19.1
90.2,72.9871,-0.3,19.1
91.3,72.9871,-0.2,19.2
92.3,72.9871,-0.2,19.2
93.3,72.9871,-0.2,19.4
94.3,72.9871,-3.8,19.3
95.3,72.9871,-3.7,19.4
96.3,72.9871,-3.8,19.4
97.3,72.9771,-3.7,19.5
98.4,72.9571,-3.6,19.6
99.4,72.9171,-3.4,19.6
100.4,72.8871,-3.5,19.7
101.4,72.8571,-0.1,19.7
102.4,72.8171,-0.1,19.7
103.4,72.7671,-0.2,19.8
104.4,72.7071,0,19.8
105.5,72.6371,0,19.9
106.5,72.5571,0,20
107.5,72.4671,0,20
108.5,72.3571,-0.1,20.1
109.5,72.2471,0,20.2
110.5,72.1471,0.1,20.2
111.5,72.0371,0,20.4
112.6,71.9271,-0.1,20.3
113.6,71.8171,2.9,20.4
114.6,71.6971,2.9,20.5
115.6,71.5871,6,20.5
116.6,71.4771,11.5,20.6
117.6,71.3571,18,20.7
118.6,71.2471,27.5,20.7
119.7,71.1371,28.3,20.8
120.7,71.0171,39.8,20.9
121.7,70.8971,51.4,21
122.7,70.7871,66.1,21
123.7,70.6671,77.1,21.1
124.7,70.5471,87.9,21.2
125.7,70.4471,95,21.3
126.8,70.3271,109.2,21.3
127.8,70.2071,123.2,21.4
128.8,70.0971,135,21.5
129.8,69.9671,141.9,21.6
130.8,69.8471,152.8,21.7
131.8,69.7271,161.3,21.8
132.8,69.6071,170.8,21.8
133.8,69.4971,179.4,21.9
134.9,69.3571,191.1,22
135.9,69.2371,190.2,22.1
136.9,69.1171,197.9,22.2
137.9,68.9871,209.3,22.3
138.9,68.8571,213.1,22.4
139.9,68.7271,214.6,22.5
140.9,68.6071,218.9,22.6
142,68.4871,224.1,22.7
143,68.3471,230.1,22.8
144,68.2171,233.1,22.9
145,68.1171,237.4,23
146,67.9971,237.9,23.1
147,67.8971,248,23.3
148,67.7871,243.6,23.4
149.1,67.6671,255.1,23.5
150.1,67.5671,250.7,23.6
151.1,67.4671,259.3,23.7
152.1,67.3571,255.8,23.8
153.1,67.2271,257.9,24
154.1,67.0871,266.5,24.1
155.1,66.9571,278.3,24.2
156.2,66.8271,265.4,24.3
157.2,66.6971,267.5,24.5
158.2,66.5671,267.3,24.6
159.2,66.4271,271.6,24.7
160.2,66.2871,283.5,24.9
161.2,66.1571,270.5,24.9
162.2,66.0371,275,25.2
163.9,65.8071,282.7,25.3
164.7,65.6971,277.9,25.4
165.4,65.5771,276,25.5
166.3,65.4571,280.1,25.6
167.3,65.3371,275.8,25.8
168.3,65.2071,281,25.9
169.3,65.0771,280.9,26
170.4,64.9471,278.1,26.1
171.4,64.8071,285.1,26.4
172.4,64.6671,290.7,26.4
173.4,64.5471,283.5,26.5
174.4,64.4271,288,26.5
175.4,64.2871,281.5,26.8
176.4,64.1571,294.4,26.9
177.5,64.0271,287.9,27.1
178.5,63.9071,300.5,27.2
179.5,63.7771,300.4,27.3
180.5,63.6471,296.9,27.5
181.5,63.5171,297.5,27.6
182.5,63.3871,299.9,27.7
183.5,63.2471,304.4,27.9
184.5,63.1071,307.7,28
185.6,62.9871,297.4,28.2
186.6,62.8671,301.7,28.3
187.6,62.7171,306.5,28.4
188.6,62.5571,312.7,28.6
189.6,62.4171,312.6,28.7
190.6,62.2671,301.7,28.8
191.6,62.1371,304.1,29
192.7,62.0171,308.3,29.1
193.7,61.8871,297.2,29.3
194.7,61.7571,301.8,29.4
195.7,61.6171,303.8,29.6
196.7,61.4871,304.4,29.7
197.7,61.3571,312.9,29.8
198.7,61.2271,310.7,30
199.8,61.0971,310,30.1
200.8,60.9671,313.3,30.3
201.8,60.8371,308.6,30.4
202.8,60.7071,314.7,30.5
203.8,60.5771,310.7,30.7
204.8,60.4471,300.3,30.8
205.8,60.3071,300.7,31
206.9,60.1671,310.8,31.1
207.9,60.0471,302.5,31.3
208.9,59.9071,311.6,31.4
209.9,59.7671,318.1,31.6
210.9,59.6271,306.6,31.7
211.9,59.5071,303.8,31.8
212.9,59.3671,315.5,32
214,59.2471,311.6,32.1
215,59.1171,317.8,32.2
216,58.9771,308.5,32.4
217,58.8371,314.6,32.4
218,58.7071,318.2,32.7
219,58.5771,314.4,32.8
220,58.4471,310.7,33
221.1,58.3071,307.2,33.1
222.1,58.1571,311.3,33.2
223.1,58.0271,312.1,33.4
224.1,57.8971,310.5,33.5
225.1,57.7571,308.3,33.7
226.1,57.6071,318.5,33.8
227.1,57.4671,321.5,34
228.2,57.3271,311.4,34.1
229.2,57.1771,312.7,34.2
230.2,57.0471,319,34.4
231.2,56.9171,312.6,34.5
232.2,56.7871,312.2,34.6
233.2,56.6571,307.2,34.7
234.2,56.5271,307.8,35
235.2,56.3871,316.1,35
236.3,56.2471,320,35.2
237.3,56.1071,313.4,35.3
238.3,55.9871,307,35.4
239.3,55.8471,318.5,35.5
240.3,55.7071,312.8,35.7
241.3,55.5671,310.3,35.8
242.3,55.4271,321.9,35.9
243.4,55.2871,321.2,36.1
244.4,55.1571,321.2,36.2
245.4,55.0171,321.1,36.3
246.4,54.8771,315.1,36.5
247.4,54.7471,319.1,36.6
248.4,54.6071,313.7,36.8
249.4,54.4671,319.2,36.9
250.5,54.3371,308,37
251.5,54.2071,313.8,37.1
252.5,54.0771,324.3,37.3
253.5,53.9371,311.5,37.4
254.5,53.8071,313.5,37.5
255.5,53.6771,324.1,37.7
256.5,53.5271,320.9,37.8
257.6,53.3771,326.3,37.9
258.6,53.2071,313.5,38.1
259.6,53.0671,326.3,38.2
260.6,52.9371,319.3,38.3
261.6,52.7871,315.6,38.5
262.6,52.6471,321.5,38.6
263.6,52.5071,318.2,38.9
265.5,52.2471,323,38.9
266.3,52.1471,318.3,39
267,52.0471,317.3,39.1
267.8,51.9571,323.6,39.3
268.7,51.8371,318.4,39.4
269.7,51.6971,321.5,39.5
270.7,51.5571,323.8,39.7
271.8,51.4071,328.4,39.8
272.8,51.2471,335,40
273.8,51.0971,320.7,40.1
274.8,50.9471,323.9,40.2
275.8,50.7971,323.2,40.3
276.8,50.6471,340,40.5
277.8,50.5071,324.3,40.6
278.9,50.3571,333.3,40.7
279.9,50.2071,324.2,41
280.9,50.0471,335.6,41
281.9,49.9071,321.4,41.1
282.9,49.7771,327.4,41.3
283.9,49.6271,330.2,41.4
284.9,49.4871,336.1,41.5
285.9,49.3371,325.9,41.7
287,49.1971,323.9,41.8
288,49.0671,332.6,42
289,48.9271,336,42.1
290,48.7671,322.7,42.2
291,48.6171,328.6,42.4
292,48.4671,331.3,42.5
293,48.3371,321.9,42.6
294.1,48.2071,330.2,42.8
295.1,48.0371,347.4,42.9
296.1,47.8771,332.9,43
297.1,47.7271,321,43.2
298.1,47.5771,328.3,43.3
299.1,47.4271,350.5,43.5
300.1,47.2671,324.4,43.6
301.2,47.0971,347.9,43.7
302.2,46.9571,334.5,43.9
303.2,46.8271,330.6,44
304.2,46.6771,332.4,44.2
305.2,46.5371,338.4,44.2
306.2,46.3871,339.6,44.4
307.2,46.2271,336.4,44.5
308.3,46.0771,348.1,44.6
309.3,45.9371,341.8,44.8
310.3,45.7871,332.6,44.9
311.3,45.6271,338.7,45.1
312.3,45.4671,342.5,45.2
313.3,45.3171,341.9,45.4
314.3,45.1571,340.6,45.5
315.4,45.0071,350.1,45.6
316.4,44.8671,341.1,45.8
317.4,44.6971,339.3,45.9
318.4,44.5171,349,46
319.4,44.3671,338.3,46.2
320.4,44.2071,353.8,46.3
321.4,44.0371,355,46.4
322.5,43.8871,337.3,46.6
323.5,43.7171,352,46.7
324.5,43.5571,350.4,46.8
325.5,43.4071,347.3,47
326.5,43.2371,344.4,47.1
327.5,43.0871,361.3,47.3
328.5,42.9371,353.8,47.4
329.6,42.7771,343.7,47.5
330.6,42.6071,354,47.7
331.6,42.4471,360.4,47.8
332.6,42.2771,354.8,48
333.6,42.1171,357.4,48
334.6,41.9471,343.8,48.2
335.6,41.7871,360.9,48.4
336.6,41.6171,360.5,48.5
337.7,41.4571,359.9,48.6
338.7,41.2971,365.6,48.7
339.7,41.1471,356.4,49
340.7,40.9771,360.6,49.1
341.7,40.8071,349,49.2
342.7,40.6471,361.9,49.2
343.7,40.4671,376.4,49.5
344.8,40.3071,370.7,49.6
345.8,40.1371,371.7,49.7
346.8,39.9571,367.6,49.9
347.8,39.7871,361.5,50
348.8,39.6171,367.1,50.1
349.8,39.4371,376.7,50.3
350.8,39.2771,374.7,50.4
351.9,39.1071,389.6,50.6
352.9,38.9371,372,50.7
353.9,38.7471,371.7,50.8
354.9,38.5671,375.3,51
355.9,38.3971,376.1,51.1
356.9,38.2271,371.3,51.3
357.9,38.0571,366,51.4
359,37.8871,379.3,51.6
360,37.7071,373.4,51.7
361,37.5271,380.3,51.8
362,37.3571,380.6,52
363,37.1771,377.2,52.1
364,37.0271,389.8,52.3
365,36.8671,390.3,52.5
366.9,36.5571,389,52.6
367.6,36.4271,389.7,52.7
368.3,36.2971,392.1,52.9
369.1,36.1671,388.5,53
370.1,35.9871,390.2,53.1
371.1,35.8271,390.1,53.3
372.1,35.6571,388.6,53.4
373.2,35.4771,389,53.6
374.2,35.3071,397.4,53.8
375.2,35.1371,388.5,53.9
376.2,34.9771,397.4,54
377.2,34.8071,392.2,54.2
378.2,34.6271,392.5,54.3
379.2,34.4671,387.7,54.5
380.3,34.2971,396.9,54.7
381.3,34.1271,390.9,54.8
382.3,33.9371,405,55
383.3,33.7671,400.6,55.2
384.3,33.5971,388.8,55.3
385.3,33.4171,401.9,55.5
386.3,33.2471,393.9,55.6
387.4,33.0671,418.2,55.8
388.4,32.8971,398.5,56
389.4,32.7371,383.9,56.2
390.4,32.5671,402.7,56.4
391.4,32.3971,400.8,56.5
392.4,32.2271,404.5,56.6
393.4,32.0571,402.9,56.9
394.4,31.8771,414.5,57.1
395.5,31.7071,406.4,57.2
396.5,31.5471,394.3,57.4
397.5,31.3771,409.5,57.6
398.5,31.1971,392.3,57.8
399.5,30.9971,383.8,58
400.5,30.8371,402,58.2
401.5,30.6571,396.6,58.4
402.6,30.4771,392.1,58.6
403.6,30.3071,410.2,58.8
404.6,30.1571,400.3,59
405.6,29.9871,411.5,59.2
406.6,29.7971,394,59.4
407.6,29.6171,418.3,59.6
408.6,29.4571,410.2,59.8
409.7,29.2771,413.8,60
410.7,29.1071,402.8,60.3
411.7,28.9371,408.6,60.5
412.7,28.7671,407.3,60.7
413.7,28.5971,405.5,60.9
414.7,28.4571,403.1,61.1
415.7,28.2871,406.8,61.4
416.8,28.1071,406.6,61.6
417.8,27.9471,407.3,61.8
418.8,27.7871,401.1,62.1
419.8,27.6171,404,62.3
420.8,27.4671,403.7,62.5
421.8,27.3271,401.2,62.8
422.8,27.1571,401.9,63
423.9,26.9971,408.9,63.2
424.9,26.8271,410.6,63.5
425.9,26.6671,408.9,63.7
426.9,26.5271,411.3,63.9
427.9,26.3771,404.9,64.2
428.9,26.2271,408.9,64.4
429.9,26.0771,400,64.7
431,25.9271,400.2,64.9
432,25.7771,400.7,65.1
433,25.6271,404.5,65.4
434,25.4871,401.4,65.6
435,25.3471,392.1,65.9
436,25.1971,397.3,66.1
437,25.0371,397,66.4
438.1,24.8971,398.8,66.6
439.1,24.7371,397,66.9
440.1,24.5871,395.2,67.1
441.1,24.4271,391,67.3
442.1,24.2771,398,67.6
443.1,24.1371,402.8,67.9
444.1,23.9871,388.6,68.1
445.1,23.8471,382.6,68.4
446.2,23.6971,390.8,68.6
447.2,23.5471,398.5,68.9
448.2,23.3971,387.3,69.1
449.2,23.2571,370,69.4
450.2,23.1071,380.2,69.7
451.2,22.9671,375.8,69.9
452.2,22.8271,372.5,70.2
453.3,22.6871,367.9,70.4
454.3,22.5371,384.7,70.7
455.3,22.3971,378.3,70.9
456.3,22.2571,375.1,71.2
457.3,22.1271,374.7,71.5
458.3,21.9971,381.6,71.7
459.3,21.8571,371,71.9
460.4,21.7071,366.5,72.2
461.4,21.5671,374.4,72.5
462.4,21.4171,362.3,72.8
463.4,21.2771,363.6,73
464.4,21.1471,364.4,73.3
465.4,21.0271,353.5,73.6
466.4,20.8871,356,74.1
468.3,20.6371,357.2,74.3
469.1,20.5271,356.1,74.5
469.8,20.4171,352.9,74.7
470.6,20.3071,354.8,75
471.5,20.1771,347.9,75.2
472.5,20.0371,357.8,75.5
473.5,19.8871,353.3,75.8
474.6,19.7471,356.5,76.1
475.6,19.6171,345.4,76.4
476.6,19.4871,352.4,76.7
477.6,19.3671,342.3,77
478.6,19.2471,343.8,77.2
479.6,19.1171,341.6,77.5
480.6,18.9971,337.4,77.8
481.7,18.8671,343,78.1
482.7,18.7271,343.9,78.4
483.7,18.5971,339,78.7
484.7,18.4671,334.5,79
485.7,18.3371,329.8,79.2
486.7,18.1971,331,79.5
487.7,18.0671,333,79.8
488.8,17.9371,345.4,80.1
489.8,17.8071,322.1,80.7
491.8,17.5371,330.1,80.9
492.5,17.4471,330.3,81.1
493.3,17.3571,330.7,81.3
494,17.2571,326.4,81.5
494.8,17.1571,335,81.8
495.8,17.0371,327.7,82.1
496.9,16.8971,323.6,82.4
497.9,16.7771,323.7,82.7
498.9,16.6471,321.3,83
499.9,16.5171,326.9,83.3
500.9,16.3771,321.7,83.6
501.9,16.2371,319.4,83.9
502.9,16.1071,318.5,84.2
504,15.9871,325.9,84.5
505,15.8671,317.1,84.8
506,15.7571,331.5,85.1
507,15.6471,316.2,85.4
508,15.5371,321.8,85.7
509,15.4371,320.1,86
510,15.3271,317.3,86.3
511.1,15.2071,312.6,86.6
512.1,15.0871,318.2,86.9
513.1,14.9671,315.4,87.2
514.1,14.8571,314.4,87.6
515.1,14.7571,313,87.8
516.1,14.6571,309.3,88.2
517.1,14.5571,310.8,88.5
518.2,14.4371,308.3,88.8
519.2,14.3371,307.8,89.2
520.2,14.2471,308.2,89.5
521.2,14.1471,301.3,89.7
522.2,14.0471,308.2,90.1
523.2,13.9571,306.9,90.4
524.2,13.8671,300.8,90.8
525.3,13.7771,303.5,91.1
526.3,13.6971,294.8,91.4
527.3,13.6171,293.2,91.7
528.3,13.5371,286,92.1
529.3,13.4571,290.4,92.4
530.3,13.3671,286.3,92.8
531.3,13.2871,284.3,93.1
532.4,13.1971,285.4,93.4
533.4,13.1171,272.3,93.8
534.4,13.0271,277.6,94.1
535.4,12.9471,272.8,94.5
536.4,12.8771,272.2,94.8
537.4,12.8071,266.7,95.2
538.4,12.7271,265.2,95.5
539.5,12.6571,259.1,96
540.5,12.5871,256.7,96.2
541.5,12.5071,255,96.6
542.5,12.4471,250.7,97
543.5,12.3671,244.3,97.3
544.5,12.2871,240.2,97.7
545.5,12.1971,248.5,98.1
546.5,12.0871,233.5,98.5
547.6,11.9771,235.2,98.8
548.6,11.8671,228.6,99.2
549.6,11.7971,230.1,99.5
550.6,11.7271,223.8,99.9
551.6,11.6671,223.2,100.3
552.6,11.5971,212.1,100.6
553.6,11.5471,215.7,101
554.7,11.4871,208.6,101.3
555.7,11.4471,205.6,101.7
556.7,11.3971,202.2,102.1
557.7,11.3371,204.5,102.5
558.7,11.2771,204.3,102.8
559.7,11.2271,197.6,103.2
560.7,11.1771,188.2,103.5
561.8,11.1171,193.1,104
562.8,11.0671,186.4,104.3
563.8,11.0071,186.7,104.7
564.8,10.9571,182.8,105.1
565.8,10.9071,187,105.5
566.8,10.8571,175.8,105.9
567.8,10.8071,165.8,106.5
569.5,10.7371,176.8,106.8
570.2,10.6971,169.2,107.1
570.9,10.6571,169.6,107.4
571.9,10.6071,164.2,107.8
572.9,10.5671,159.6,108.2
573.9,10.5271,159.6,108.6
574.9,10.4871,157.6,109.1
576,10.4471,156,109.4
577,10.3971,151.1,109.9
578,10.3571,147.6,110.2
579,10.3271,149.6,110.6
580,10.2971,147,111.1
581,10.2571,150,111.5
582,10.2171,140.2,111.9
583.1,10.1771,138,112.3
584.1,10.1271,139.8,112.7
585.1,10.0871,137.1,113.1
586.1,10.0471,136.5,113.5
587.1,10.0071,131,113.9
588.1,9.97714,131.9,114.3
589.1,9.93714,133.7,114.8
590.1,9.89714,126.5,115.2
591.2,9.86714,127.5,115.6
592.2,9.82714,123.8,116
593.2,9.78714,121.9,116.4
594.2,9.74714,121.9,116.8
595.2,9.72714,120.4,117.2
596.2,9.69714,115.5,117.6
597.2,9.66714,113.5,118
598.3,9.62714,116.3,118.4
599.3,9.59714,113.4,118.9
600.3,9.55714,113.4,119.3
601.3,9.51714,108.5,119.7
602.3,9.48714,108.6,120
603.3,9.45714,109.3,120.5
604.3,9.41714,106,120.9
605.4,9.39714,105.7,121.3
606.4,9.36714,101,121.8
607.4,9.33714,101.8,122.1
608.4,9.30714,101.7,122.5
609.4,9.27714,99.2,122.8
610.4,9.23714,99.5,123.3
611.4,9.20714,95.7,123.7
612.5,9.17714,97.1,124.1
613.5,9.13714,93.8,124.5
614.5,9.09714,88.8,125
615.5,9.06714,88.3,125.4
616.5,9.05714,90.9,125.7
617.5,9.02714,91,126.2
618.5,8.99714,88.7,126.6
619.6,8.95714,86.9,127
620.6,8.92714,86.8,127.5
621.6,8.89714,86.2,127.8
622.6,8.87714,84.6,128.2
623.6,8.84714,84.9,128.6
624.6,8.81714,83.4,129
625.6,8.80714,80.6,129.4
626.7,8.77714,82.4,129.8
627.7,8.71714,83.5,130.3
628.7,8.70714,79.6,130.6
629.7,8.69714,80.5,131.1
630.7,8.66714,80.4,131.5
631.7,8.64714,77.9,131.9
632.7,8.62714,76.8,132.3
633.8,8.59714,76.6,132.6
634.8,8.57714,76,133.1
635.8,8.55714,75.4,133.5
636.8,8.52714,72.3,133.8
637.8,8.48714,70.4,134.2
638.8,8.45714,71.5,134.6
639.8,8.43714,72.9,135
640.8,8.42714,70.3,135.4
641.9,8.40714,69.9,135.8
642.9,8.37714,69.2,136.2
643.9,8.35714,67.4,136.6
644.9,8.32714,66.9,137
645.9,8.29714,68.9,137.3
646.9,8.26714,67,137.7
647.9,8.25714,66.3,138.1
649,8.23714,65.6,138.5
650,8.21714,64.6,138.9
651,8.19714,65.4,139.3
652,8.17714,61.5,139.6
653,8.15714,62.2,140
654,8.13714,59.3,140.4
655,8.10714,59,140.8
656.1,8.09714,58.4,141.1
657.1,8.08714,58.6,141.5
658.1,8.05714,59.5,141.9
659.1,8.04714,55.8,142.3
660.1,8.03714,57.3,142.6
661.1,8.02714,57.2,143
662.1,8.00714,57.8,143.4
663.2,7.97714,53.9,143.8
664.2,7.94714,54.3,144.1
665.2,7.91714,53.8,144.5
666.2,7.90714,54.1,144.8
667.2,7.88714,55.5,145.2
668.2,7.86714,53.8,145.5
669.2,7.85714,51.2,146.3
671.3,7.80714,51.6,146.6
672,7.78714,52.2,146.8
672.7,7.78714,51.8,147.1
673.5,7.78714,51.3,147.3
674.3,7.77714,52.3,147.7
675.3,7.74714,53.1,148.1
676.3,7.72714,48.6,148.4
677.4,7.71714,48.9,148.8
678.4,7.70714,48.9,149.1
679.4,7.68714,48.5,149.5
680.4,7.67714,49.5,149.8
681.4,7.66714,50.8,150.1
682.4,7.64714,45.8,150.4
683.4,7.61714,46.6,150.8
684.4,7.60714,46.9,151.1
685.5,7.57714,45.9,151.5
686.5,7.54714,46.6,151.8
687.5,7.52714,43.7,152.1
688.5,7.50714,44.4,152.5
689.5,7.49714,44.6,152.8
690.5,7.48714,43.4,153.2
691.5,7.45714,43.6,153.5
692.6,7.43714,44.3,153.8
693.6,7.42714,44.1,154.1
694.6,7.40714,40.2,154.5
695.6,7.38714,40.3,154.8
696.6,7.36714,40.4,155.1
697.6,7.35714,41,155.5
698.6,7.34714,40.8,155.8
699.7,7.32714,40.9,156.1
700.7,7.30714,41.9,156.4
701.7,7.29714,40.8,156.7
702.7,7.28714,40.6,157.1
703.7,7.27714,41.5,157.4
704.7,7.26714,41.4,157.7
705.7,7.24714,42.4,158
706.8,7.21714,42.5,158.3
707.8,7.21714,38.4,158.6
708.8,7.19714,38.2,158.9
709.8,7.18714,38.6,159.2
710.8,7.16714,38.6,159.6
711.8,7.15714,37.9,159.9
712.8,7.13714,38.8,160.2
713.9,7.12714,37.9,160.5
714.9,7.10714,37.4,160.8
715.9,7.08714,39,161.1
716.9,7.06714,38.9,161.4
717.9,7.04714,39.3,161.7
718.9,7.03714,38.3,162
719.9,7.02714,38.8,162.3
721,7.01714,35.6,162.6
722,6.98714,35.5,163
723,6.96714,36.1,163.2
724,6.95714,36.3,163.5
725,6.93714,36.1,163.8
726,6.91714,36.3,164.2
727,6.90714,35.6,164.5
728.1,6.88714,35.9,164.7
729.1,6.87714,36.4,165
730.1,6.86714,35.9,165.3
731.1,6.85714,35.8,165.6
732.1,6.83714,35.3,165.9
733.1,6.82714,36.8,166.2
734.1,6.81714,36.3,166.5
735.1,6.79714,36.3,166.8
736.2,6.77714,36.1,167.1
737.2,6.75714,36.1,167.4
738.2,6.74714,35.2,167.7
739.2,6.72714,35.9,168
740.2,6.72714,36.8,168.3
741.2,6.73714,35.4,168.6
742.2,6.71714,36.4,168.9
743.3,6.68714,32.8,169.2
744.3,6.66714,33,169.5
745.3,6.64714,33.3,169.7
746.3,6.62714,33,170
747.3,6.61714,32.8,170.3
748.3,6.61714,33,170.6
749.3,6.61714,32.8,170.9
750.4,6.60714,32.9,171.2
751.4,6.59714,33,171.5
752.4,6.58714,33.2,171.7
753.4,6.57714,32.7,172
754.4,6.55714,32.3,172.3
755.4,6.53714,33.2,172.6
756.4,6.52714,33.1,172.9
757.5,6.50714,33.4,173.2
758.5,6.48714,32.8,173.4
759.5,6.46714,32.5,173.7
760.5,6.45714,32.9,174
761.5,6.43714,33.4,174.3
762.5,6.42714,33.7,174.6
763.5,6.40714,33.2,174.8
764.6,6.39714,33.4,175.1
765.6,6.38714,30.2,175.4
766.6,6.37714,29.7,175.7
767.6,6.36714,30.2,175.9
768.6,6.35714,30.1,176.2
769.6,6.33714,30.4,176.5
770.6,6.32714,30.1,177
772.5,6.28714,30.2,177.2
773.3,6.28714,30.6,177.4
774,6.27714,29.8,177.6
774.8,6.26714,30.5,177.9
775.7,6.23714,30.1,178.1
776.7,6.22714,30.1,178.4
777.7,6.21714,30.2,178.7
778.7,6.21714,30.4,178.9
779.8,6.20714,30.5,179.2
780.8,6.19714,30.8,179.4
781.8,6.16714,30.4,179.7
782.8,6.14714,31.1,180
783.8,6.12714,30.6,180.3
784.8,6.10714,30.5,180.6
785.8,6.08714,30.8,180.8
786.9,6.06714,30.6,181.1
787.9,6.05714,30.5,181.4
788.9,6.05714,30.5,181.6
789.9,6.06714,30.8,181.9
790.9,6.05714,30.7,182.1
791.9,6.03714,30.9,182.4
792.9,6.01714,31.1,182.7
794,6.00714,30.1,182.9
795,6.00714,30.8,183.2
796,5.98714,31.1,183.4
797,5.97714,31.2,183.7
798,5.97714,31.2,184
799,5.96714,30.4,184.2
800,5.94714,30.8,184.5
801.1,5.90714,31.1,184.7
802.1,5.88714,31.2,185
803.1,5.86714,30.8,185.2
804.1,5.85714,31,185.5
805.1,5.86714,31.1,185.7
806.1,5.83714,31.1,186
807.1,5.80714,31,186.3
808.2,5.78714,30.7,186.5
809.2,5.77714,30.7,186.8
810.2,5.75714,31.3,187.1
811.2,5.74714,31.2,187.3
812.2,5.72714,31,187.5
813.2,5.71714,31.3,187.8
814.2,5.72714,31,188.1
815.3,5.71714,31.1,188.3
816.3,5.71714,31.4,188.5
817.3,5.70714,31.2,188.8
818.3,5.68714,31.2,189
819.3,5.67714,31.9,189.3
820.3,5.66714,30.9,189.5
821.3,5.65714,30.7,189.8
822.4,5.63714,31.4,190
823.4,5.61714,31.3,190.3
824.4,5.56714,30.8,190.5
825.4,5.55714,31.5,190.8
826.4,5.55714,31.3,191
827.4,5.52714,31.6,191.3
828.4,5.50714,31.1,191.5
829.4,5.47714,31.5,191.8
830.5,5.45714,30.3,192
831.5,5.43714,27.5,192.3
832.5,5.42714,28.2,192.5
833.5,5.41714,28.1,192.8
834.5,5.39714,28,193
835.5,5.37714,28.5,193.3
836.5,5.36714,28.7,193.5
837.6,5.35714,27.6,193.7
838.6,5.36714,27.5,194
839.6,5.35714,27.8,194.2
840.6,5.32714,27.8,194.5
841.6,5.28714,28,194.7
842.6,5.26714,28.1,194.9
843.6,5.24714,27.8,195.2
844.7,5.22714,28.3,195.4
845.7,5.22714,28.9,195.7
846.7,5.22714,28.3,195.9
847.7,5.22714,28.5,196.2
848.7,5.19714,28.3,196.4
849.7,5.17714,28.2,196.6
850.7,5.15714,28.6,196.9
851.8,5.14714,28.8,197.1
852.8,5.14714,27.8,197.3
853.8,5.14714,28.2,197.5
854.8,5.12714,27.7,197.8
855.8,5.10714,28.7,198
856.8,5.09714,28.6,198.2
857.8,5.08714,28.5,198.5
858.9,5.07714,28.6,198.6
859.9,5.07714,28.5,198.9
860.9,5.04714,28.7,199.2
861.9,5.03714,28.2,199.4
862.9,5.02714,27.8,199.6
863.9,5.00714,28.7,199.8
864.9,4.98714,28.7,200.1
866,4.97714,28.8,200.3
867,4.96714,28.5,200.5
868,4.95714,28.6,200.8
869,4.94714,28.6,201
870,4.92714,28.2,201.2
871,4.90714,28.4,201.5
872,4.90714,29.3,201.9
873.9,4.87714,28.3,202
874.6,4.86714,28.4,202.2
875.4,4.85714,28.4,202.4
876.1,4.84714,28.4,202.6
877.1,4.83714,28,202.8
878.1,4.82714,28,203
879.1,4.80714,28.5,203.3
880.1,4.78714,28.7,203.5
881.2,4.77714,28.5,203.7
882.2,4.77714,28.7,203.9
883.2,4.76714,24.9,204.2
884.2,4.73714,25.4,204.4
885.2,4.71714,24.6,204.7
886.2,4.69714,25.6,204.9
887.2,4.67714,25.3,205.1
888.3,4.66714,25.4,205.3
889.3,4.65714,25.1,205.6
890.3,4.64714,25.7,205.8
891.3,4.63714,25.1,206
892.3,4.61714,28.4,206.2
893.3,4.59714,25.2,206.5
894.3,4.59714,25.4,206.7
895.4,4.58714,25.3,206.9
896.4,4.59714,25.4,207.1
897.4,4.56714,25.2,207.4
898.4,4.54714,25.2,207.6
899.4,4.52714,25.4,207.8
900.4,4.52714,25.6,208
901.4,4.51714,25.2,208.2
902.5,4.51714,25.1,208.5
903.5,4.49714,25,208.7
904.5,4.46714,24.8,208.9
905.5,4.42714,25.1,209.1
906.5,4.44714,25.4,209.4
907.5,4.44714,25.1,209.6
908.5,4.43714,24.6,209.8
909.6,4.44714,24.9,210
910.6,4.44714,25.4,210.2
911.6,4.42714,24.9,210.5
912.6,4.39714,25.1,210.7
913.6,4.36714,25.4,210.9
914.6,4.33714,25.5,211.1
915.6,4.30714,24.7,211.3
916.7,4.27714,25.2,211.6
917.7,4.25714,25,211.8
918.7,4.23714,25.2,212
919.7,4.22714,25.6,212.2
920.7,4.22714,25.7,212.4
921.7,4.22714,25.6,212.6
922.7,4.22714,25.2,212.8
923.7,4.20714,26,213
924.8,4.18714,25.8,213.3
925.8,4.17714,25.5,213.5
926.8,4.16714,25.4,213.6
927.8,4.14714,25.4,213.8
928.8,4.11714,25.9,214.1
929.8,4.08714,25.5,214.3
930.8,4.07714,25.3,214.5
931.9,4.05714,25.1,214.7
932.9,4.04714,25.4,214.9
933.9,4.05714,24.9,215.1
934.9,4.04714,25.4,215.3
935.9,4.02714,25.9,215.5
936.9,4.02714,25.7,215.8
937.9,4.00714,25.8,216
939,3.99714,25.4,216.1
940,3.98714,25.4,216.3
941,3.96714,25.1,216.6
942,3.95714,25.2,216.8
943,3.94714,25.5,216.9
944,3.93714,25.8,217.2
945,3.92714,25.4,217.4
946.1,3.90714,25.6,217.6
947.1,3.89714,25.6,217.8
948.1,3.88714,25.7,218
949.1,3.86714,26,218.2
950.1,3.84714,25.4,218.4
951.1,3.84714,25.7,218.6
952.1,3.84714,25.6,218.8
953.2,3.84714,26.1,219
954.2,3.82714,25.3,219.2
955.2,3.81714,25.7,219.4
956.2,3.80714,25.3,219.6
957.2,3.79714,25.5,219.9
958.2,3.78714,25.9,220.1
959.2,3.76714,25.7,220.2
960.3,3.75714,25.5,220.4
961.3,3.73714,25.7,220.7
962.3,3.72714,25.2,220.9
963.3,3.70714,25.4,221
964.3,3.67714,25.2,221.2
965.3,3.66714,25.2,221.5
966.3,3.64714,25.4,221.7
967.3,3.63714,25.1,221.9
968.4,3.62714,26.1,222.1
969.4,3.60714,25.6,222.3
970.4,3.59714,25.6,222.5
971.4,3.58714,26,222.7
972.4,3.58714,25.8,222.9
973.4,3.57714,26.2,223.3
975.3,3.50714,25.8,223.4
976,3.49714,25.8,223.6
976.8,3.50714,25.3,223.7
977.5,3.51714,25.4,223.9
978.5,3.51714,25.6,224.1
979.5,3.48714,26,224.3
980.5,3.46714,25.5,224.5
981.5,3.45714,25.6,224.7
982.6,3.44714,25.9,224.9
983.6,3.42714,25.9,225.1
984.6,3.40714,25.9,225.3
985.6,3.38714,25.4,225.5
986.6,3.37714,25.8,225.7
987.6,3.37714,25.5,225.9
988.6,3.36714,25.4,226.1
989.7,3.33714,25.5,226.3
990.7,3.31714,25.9,226.4
991.7,3.30714,25.4,226.7
992.7,3.28714,26.6,226.8
993.7,3.28714,26.4,227.1
994.7,3.27714,26.1,227.2
995.7,3.26714,25.7,227.4
996.8,3.24714,26.1,227.6
997.8,3.23714,25.5,227.8
998.8,3.23714,25.5,228
999.8,3.22714,26,228.2
1000.8,3.21714,26.5,228.4
1001.8,3.21714,25.8,228.6
1002.8,3.19714,25.3,228.8
1003.9,3.18714,26.1,228.9
1004.9,3.16714,25.4,229.1
1005.9,3.16714,26,229.3
1006.9,3.14714,25.9,229.5
1007.9,3.13714,25.2,229.7
1008.9,3.11714,25.5,229.9
1009.9,3.10714,26,230.1
1011,3.10714,26.7,230.3
1012,3.07714,26.5,230.5
1013,3.05714,26,230.7
1014,3.04714,26,230.8
1015,3.01714,25.9,231
1016,3.01714,22.3,231.2
1017,3.01714,22.6,231.4
1018.1,2.99714,22.5,231.6
1019.1,2.99714,22.4,231.8
1020.1,2.98714,22,232
1021.1,2.97714,22.6,232.2
1022.1,2.95714,22,232.3
1023.1,2.94714,22.5,232.5
1024.1,2.94714,22.3,232.7
1025.1,2.93714,22.4,232.9
1026.2,2.91714,21.7,233.1
1027.2,2.90714,22.1,233.3
1028.2,2.90714,22.5,233.4
1029.2,2.89714,22.8,233.7
1030.2,2.88714,22.5,233.8
1031.2,2.87714,21.8,234
1032.2,2.84714,22.6,234.2
1033.3,2.83714,22.3,234.4
1034.3,2.83714,22.6,234.6
1035.3,2.81714,22.5,234.8
1036.3,2.79714,22,234.9
1037.3,2.78714,22.3,235.1
1038.3,2.77714,22.3,235.3
1039.3,2.77714,22.7,235.5
1040.4,2.75714,22.6,235.7
1041.4,2.72714,22,235.8
1042.4,2.72714,22.4,236.1
1043.4,2.73714,22.8,236.2
1044.4,2.71714,22.3,236.4
1045.4,2.69714,22.4,236.6
1046.4,2.68714,22.6,236.8
1047.5,2.67714,22.3,237
1048.5,2.67714,22.6,237.2
1049.5,2.67714,22.6,237.3
1050.5,2.66714,22.5,237.5
1051.5,2.64714,23.5,237.7
1052.5,2.61714,22.7,237.9
1053.5,2.60714,22.4,238.1
1054.6,2.59714,22.8,238.2
1055.6,2.58714,22.8,238.4
1056.6,2.58714,22.9,238.6
1057.6,2.57714,23,238.8
1058.6,2.56714,23.1,239
1059.6,2.55714,22.6,239.1
1060.6,2.54714,22.9,239.3
1061.7,2.53714,23.4,239.5
1062.7,2.53714,23.2,239.7
1063.7,2.52714,19.5,239.8
1064.7,2.51714,23.1,240
1065.7,2.50714,22.8,240.2
1066.7,2.50714,23,240.4
1067.7,2.48714,19.1,240.5
1068.8,2.47714,19.2,240.7
1069.8,2.45714,18.9,240.9
1070.8,2.44714,19.3,241.1
1071.8,2.42714,19.2,241.3
1072.8,2.42714,19.5,241.4
1073.8,2.41714,19.2,241.6
1074.8,2.39714,19,241.9
1076.7,2.36714,19,242.1
1077.5,2.35714,19.2,242.2
1078.2,2.34714,19.4,242.3
1079,2.33714,18.4,242.5
1079.9,2.32714,19,242.7
1080.9,2.31714,19.8,242.9
1081.9,2.30714,19.5,243
1082.9,2.30714,19.3,243.2
1084,2.29714,18.9,243.4
1085,2.28714,19.7,243.6
1086,2.26714,19.6,243.7
1087,2.25714,19.8,243.9
1088,2.25714,19.5,244.1
1089,2.22714,19.6,244.3
1090,2.19714,19.7,244.4
1091.1,2.18714,19.6,244.6
1092.1,2.16714,19.3,244.8
1093.1,2.14714,19.9,244.9
1094.1,2.13714,19.5,245.1
1095.1,2.13714,19.4,245.3
1096.1,2.12714,19.6,245.4
1097.1,2.10714,19.4,245.6
1098.2,2.09714,19.8,245.8
1099.2,2.08714,19.3,245.9
1100.2,2.08714,19.3,246.1
1101.2,2.07714,19.3,246.3
1102.2,2.05714,19.6,246.5
1103.2,2.04714,19.6,246.6
1104.2,2.02714,19.7,246.8
1105.3,2.01714,19.8,246.9
1106.3,2.00714,20,247.1
1107.3,1.98714,19.7,247.3
1108.3,1.96714,19.5,247.5
1109.3,1.96714,19.1,247.6
1110.3,1.95714,19.6,247.8
1111.3,1.95714,19.8,248
1112.4,1.95714,19.2,248.1
1113.4,1.95714,19.3,248.3
1114.4,1.94714,20,248.4
1115.4,1.94714,19.9,248.6
1116.4,1.94714,19.3,248.8
1117.4,1.92714,19.5,248.9
1118.4,1.91714,19.4,249.1
1119.5,1.92714,18.8,249.3
1120.5,1.91714,15.9,249.5
1121.5,1.90714,16.5,249.6
1122.5,1.89714,16,249.7
1123.5,1.87714,15.9,249.9
1124.5,1.86714,16,250.1
1125.5,1.84714,16.4,250.2
1126.6,1.83714,16.3,250.4
1127.6,1.84714,16,250.6
1128.6,1.82714,15.9,250.7
1129.6,1.79714,15.7,250.8
1130.6,1.77714,15.9,251
1131.6,1.75714,16,251.2
1132.6,1.74714,16.3,251.3
1133.7,1.72714,16.5,251.5
1134.7,1.71714,16.5,251.7
1135.7,1.70714,16.1,251.8
1136.7,1.68714,16.3,252
1137.7,1.68714,16.2,252.2
1138.7,1.66714,16.1,252.3
1139.7,1.65714,16.1,252.5
1140.7,1.65714,16.1,252.6
1141.8,1.64714,16,252.7
1142.8,1.64714,16.2,252.9
1143.8,1.64714,16.3,253
1144.8,1.63714,16.4,253.2
1145.8,1.61714,16.5,253.4
1146.8,1.59714,15.8,253.5
1147.8,1.58714,16.9,253.7
1148.9,1.58714,16.1,253.8
1149.9,1.57714,16.5,254
1150.9,1.55714,16.6,254.1
1151.9,1.54714,16.5,254.3
1152.9,1.52714,16.5,254.4
1153.9,1.52714,16.6,254.6
1154.9,1.51714,16.9,254.8
1156,1.51714,16.8,254.9
1157,1.51714,16.9,255
1158,1.47714,16.3,255.2
1159,1.45714,16.2,255.4
1160,1.44714,16.5,255.5
1161,1.44714,16.5,255.6
1162,1.43714,16.4,255.8
1163.1,1.44714,16.5,256
1164.1,1.42714,16.7,256.1
1165.1,1.42714,16.5,256.3
1166.1,1.43714,16.9,256.4
1167.1,1.44714,16.7,256.5
1168.1,1.43714,16.4,256.7
1169.1,1.40714,16.5,256.9
1170.2,1.39714,16.3,257
1171.2,1.38714,12.8,257.1
1172.2,1.35714,13.4,257.3
1173.2,1.33714,13,257.4
1174.2,1.32714,13,257.6
1175.2,1.30714,13.3,257.7
1176.2,1.29714,12.9,258
1178.3,1.28714,13,258.2
1180,1.27714,13.1,258.3
1180.8,1.27714,13,258.5
1181.5,1.27714,13.5,258.6
1182.4,1.26714,13,258.7
1183.3,1.25714,13.3,258.9
1184.4,1.24714,13.2,259
1185.4,1.22714,13.3,259.1
1186.4,1.21714,12.9,259.3
1187.4,1.21714,13.2,259.5
1188.4,1.20714,13,259.6
1189.4,1.19714,12.8,259.7
1190.4,1.19714,13,259.9
1191.5,1.18714,13.1,260
1192.5,1.17714,13.3,260.2
1193.5,1.17714,13.5,260.3
1194.5,1.16714,13.5,260.4
1195.5,1.15714,13.7,260.6
1196.5,1.13714,13.4,260.8
1197.5,1.14714,13.6,260.9
1198.5,1.12714,13.2,261
1199.6,1.12714,13.7,261.2
1200.6,1.12714,13.5,261.3
1201.6,1.10714,13.3,261.5
1202.6,1.08714,13.2,261.6
1203.6,1.07714,13.4,261.7
1204.6,1.08714,13.8,261.9
1205.6,1.08714,10,262
1206.7,1.06714,10.3,262.1
1207.7,1.07714,10.1,262.3
1208.7,1.07714,10.2,262.4
1209.7,1.06714,9.9,262.6
1210.7,1.05714,10.1,262.7
1211.7,1.04714,9.8,262.9
1212.7,1.03714,10,263
1213.8,1.02714,10.1,263.1
1214.8,1.00714,10.3,263.2
1215.8,0.997143,10,263.4
1216.8,0.977143,10.2,263.5
1217.8,0.967143,10,263.7
1218.8,0.957143,10.3,263.8
1219.8,0.967143,10.2,263.9
1220.9,0.967143,9.9,264.1
1221.9,0.957143,10.1,264.2
1222.9,0.957143,9.8,264.4
1223.9,0.947143,10.1,264.5
1224.9,0.947143,10.5,264.6
1225.9,0.957143,10.4,264.8
1226.9,0.947143,10.2,264.9
1228,0.927143,10,265
1229,0.917143,10.3,265.2
1230,0.907143,10.3,265.3
1231,0.907143,10.5,265.4
1232,0.897143,9.9,265.6
1233,0.897143,10,265.7
1234,0.887143,10.2,265.8
1235.1,0.877143,10.5,266
1236.1,0.877143,10.7,266.1
1237.1,0.887143,10.5,266.2
1238.1,0.877143,10.5,266.3
1239.1,0.867143,10.4,266.5
1240.1,0.857143,10.6,266.6
1241.1,0.837143,10.3,266.7
1242.2,0.827143,10.4,266.8
1243.2,0.807143,10.4,267
1244.2,0.787143,10.5,267.1
1245.2,0.787143,10.4,267.2
1246.2,0.787143,10.7,267.4
1247.2,0.777143,11.1,267.5
1248.2,0.777143,10.7,267.7
1249.3,0.787143,10.9,267.8
1250.3,0.797143,10.6,267.9
1251.3,0.797143,10.6,268.1
1252.3,0.787143,10.6,268.3
1253.3,0.787143,10.5,268.4
1254.3,0.777143,10.7,268.5
1255.3,0.777143,10.8,268.6
1256.3,0.767143,10.7,268.7
1257.4,0.747143,10.8,268.9
1258.4,0.737143,11,269
1259.4,0.727143,11.3,269.1
1260.4,0.717143,11.2,269.2
1261.4,0.697143,11.2,269.4
1262.4,0.687143,11,269.5
1263.4,0.677143,10.8,269.6
1264.5,0.667143,11,269.7
1265.5,0.657143,11.3,269.9
1266.5,0.657143,8,270
1267.5,0.657143,7.8,270.1
1268.5,0.647143,7.9,270.2
1269.5,0.637143,7.9,270.4
1270.5,0.617143,7.8,270.5
1271.6,0.607143,8,270.6
1272.6,0.597143,7.7,270.7
1273.6,0.597143,7.5,270.9
1274.6,0.607143,7.6,271
1275.6,0.607143,7.8,271.1
1276.6,0.587143,7.6,271.2
1277.6,0.587143,7.9,271.4
1278.7,0.577143,7.8,271.6
1280.5,0.557143,7.7,271.7
1281.3,0.557143,7.7,271.8
1282,0.557143,8,271.9
1282.8,0.547143,7.8,272
1283.7,0.547143,7.8,272.1
1284.7,0.547143,7.6,272.2
1285.8,0.537143,7.6,272.4
1286.8,0.527143,7.7,272.5
1287.8,0.527143,7.8,272.6
1288.8,0.517143,7.8,272.7
1289.8,0.517143,7.7,272.8
1290.8,0.517143,7.8,273
1291.8,0.507143,7.7,273.1
1292.9,0.497143,7.9,273.2
1293.9,0.477143,7.8,273.3
1294.9,0.467143,7.8,273.4
1295.9,0.457143,7.7,273.5
1296.9,0.447143,7.8,273.7
1297.9,0.437143,7.7,273.8
1298.9,0.437143,7.6,273.9
1300,0.427143,7.7,274
1301,0.417143,7.6,274.2
1302,0.407143,7.7,274.3
1303,0.407143,7.6,274.4
1304,0.387143,7.7,274.6
1305,0.347143,7.7,274.7
1306,0.337143,7.6,274.8
1307.1,0.377143,8.1,274.9
1308.1,0.377143,7.9,275.1
1309.1,0.377143,8,275.1
1310.1,0.377143,8.2,275.3
1311.1,0.377143,8,275.4
1312.1,0.357143,7.9,275.5
1313.1,0.337143,7.9,275.6
1314.1,0.337143,7.8,275.8
1315.2,0.327143,8,275.8
1316.2,0.327143,7.9,275.9
1317.2,0.317143,8.3,276.1
1318.2,0.297143,8.2,276.2
1319.2,0.287143,8.2,276.3
1320.2,0.267143,8,276.4
1321.2,0.267143,8.3,276.5
1322.3,0.267143,8.3,276.6
1323.3,0.257143,8.4,276.7
1324.3,0.247143,8.1,276.9
1325.3,0.237143,8.1,276.9
1326.3,0.247143,8,277
1327.3,0.247143,7.9,277.1
1328.3,0.247143,8.2,277.3
1329.4,0.247143,8.1,277.4
1330.4,0.237143,8.3,277.5
1331.4,0.217143,8,277.6
1332.4,0.207143,8,277.7
1333.4,0.217143,7.9,277.8
1334.4,0.207143,8,278
1335.4,0.197143,8,278.1
1336.5,0.197143,7.9,278.1
1337.5,0.207143,7.9,278.3
1338.5,0.207143,7.8,278.4
1339.5,0.197143,7.9,278.5
1340.5,0.207143,4.4,278.6
1341.5,0.217143,4.6,278.7
1342.5,0.217143,4.3,278.8
1343.6,0.197143,4.4,278.9
1344.6,0.197143,4.5,279
1345.6,0.187143,4.3,279.1
1346.6,0.177143,4.4,279.2
1347.6,0.177143,4.5,279.3
1348.6,0.177143,4.2,279.4
1349.6,0.167143,4.4,279.6
1350.7,0.157143,4.5,279.6
1351.7,0.147143,4.5,279.8
1352.7,0.137143,4.5,279.9
1353.7,0.127143,4.3,280
1354.7,0.127143,4.4,280.1
1355.7,0.127143,4.5,280.2
1356.7,0.117143,4.5,280.3
1357.8,0.107143,4.5,280.4
1358.8,0.107143,4.7,280.5
1359.8,0.0971429,4.5,280.6
1360.8,0.0971429,4.6,280.7
1361.8,0.0771429,4.6,280.8
1362.8,0.0671429,4.7,280.9
1363.8,0.0571429,4.5,281
1364.9,0.0471429,4.3,281.1