File: PMMA/Validation_Results/NIST_FSRI/NIST_FSRI_Gasification_q50_Temp_T3.csv
Time,T_back
[s],[K]
0,292.4
0.5,292.4
1,292.4
1.5,292.4
2,292.4
2.5,292.4
3,292.4
3.5,292.4
4,292.4
4.5,292.4
5,292.4
5.5,292.4
6,292.4
6.5,292.4
7,292.4
7.5,292.4
8,292.4
8.5,292.4
9,292.4
9.5,292.4
10,292.4
10.5,292.4
11,292.4
11.5,292.4
12,292.4
12.5,292.4
13,292.4
13.5,292.4
14,292.4
14.5,292.4
15,292.4
15.5,292.4
16,292.4
16.5,292.4
17,292.4
17.5,292.4
18,292.4
18.5,292.4
19,292.4
19.5,292.4
20,292.4
20.5,292.4
21,292.4
21.5,292.4
22,292.4
22.5,292.4
23,292.4
23.5,292.4
24,292.4
24.5,292.4
25,292.5
25.5,292.5
26,292.5
26.5,292.5
27,292.5
27.5,292.6
28,292.6
28.5,292.6
29,292.6
29.5,292.7
30,292.7
30.5,292.7
31,292.8
31.5,292.8
32,292.9
32.5,292.9
33,293.0
33.5,293.0
34,293.1
34.5,293.1
35,293.2
35.5,293.3
36,293.3
36.5,293.4
37,293.5
37.5,293.6
38,293.7
38.5,293.7
39,293.8
39.5,293.9
40,294.0
40.5,294.1
41,294.2
41.5,294.4
42,294.5
42.5,294.6
43,294.7
43.5,294.9
44,295.0
44.5,295.1
45,295.3
45.5,295.4
46,295.6
46.5,295.7
47,295.9
47.5,296.1
48,296.2
48.5,296.4
49,296.6
49.5,296.8
50,296.9
50.5,297.1
51,297.3
51.5,297.5
52,297.7
52.5,297.9
53,298.2
53.5,298.4
54,298.6
54.5,298.8
55,299.1
55.5,299.3
56,299.5
56.5,299.8
57,300.0
57.5,300.3
58,300.5
58.5,300.8
59,301.1
59.5,301.3
60,301.6
60.5,301.9
61,302.2
61.5,302.5
62,302.7
62.5,303.0
63,303.3
63.5,303.6
64,303.9
64.5,304.3
65,304.6
65.5,304.9
66,305.2
66.5,305.5
67,305.9
67.5,306.2
68,306.5
68.5,306.9
69,307.2
69.5,307.6
70,307.9
70.5,308.3
71,308.6
71.5,309.0
72,309.4
72.5,309.7
73,310.1
73.5,310.5
74,310.8
74.5,311.2
75,311.6
75.5,312.0
76,312.4
76.5,312.8
77,313.2
77.5,313.6
78,314.0
78.5,314.4
79,314.8
79.5,315.2
80,315.6
80.5,316.0
81,316.5
81.5,316.9
82,317.3
82.5,317.7
83,318.2
83.5,318.6
84,319.0
84.5,319.5
85,319.9
85.5,320.3
86,320.8
86.5,321.2
87,321.7
87.5,322.1
88,322.6
88.5,323.0
89,323.5
89.5,323.9
90,324.4
90.5,324.9
91,325.3
91.5,325.8
92,326.3
92.5,326.7
93,327.2
93.5,327.7
94,328.1
94.5,328.6
95,329.1
95.5,329.6
96,330.1
96.5,330.5
97,331.0
97.5,331.5
98,332.0
98.5,332.5
99,333.0
99.5,333.5
100,334.0
100.5,334.4
101,334.9
101.5,335.4
102,335.9
102.5,336.4
103,336.9
103.5,337.4
104,337.9
104.5,338.4
105,338.9
105.5,339.4
106,339.9
106.5,340.5
107,341.0
107.5,341.5
108,342.0
108.5,342.5
109,343.0
109.5,343.5
110,344.0
110.5,344.5
111,345.0
111.5,345.6
112,346.1
112.5,346.6
113,347.1
113.5,347.6
114,348.1
114.5,348.7
115,349.2
115.5,349.7
116,350.2
116.5,350.8
117,351.3
117.5,351.8
118,352.3
118.5,352.8
119,353.4
119.5,353.9
120,354.4
120.5,354.9
121,355.5
121.5,356.0
122,356.5
122.5,357.0
123,357.6
123.5,358.1
124,358.6
124.5,359.2
125,359.7
125.5,360.2
126,360.7
126.5,361.3
127,361.8
127.5,362.3
128,362.9
128.5,363.4
129,363.9
129.5,364.5
130,365.0
130.5,365.5
131,366.1
131.5,366.6
132,367.1
132.5,367.7
133,368.2
133.5,368.7
134,369.3
134.5,369.8
135,370.3
135.5,370.9
136,371.4
136.5,371.9
137,372.5
137.5,373.0
138,373.5
138.5,374.1
139,374.6
139.5,375.1
140,375.7
140.5,376.2
141,376.7
141.5,377.3
142,377.8
142.5,378.3
143,378.9
143.5,379.4
144,380.0
144.5,380.5
145,381.0
145.5,381.6
146,382.1
146.5,382.6
147,383.2
147.5,383.7
148,384.2
148.5,384.8
149,385.3
149.5,385.8
150,386.4
150.5,386.9
151,387.4
151.5,388.0
152,388.5
152.5,389.1
153,389.6
153.5,390.1
154,390.7
154.5,391.2
155,391.7
155.5,392.3
156,392.8
156.5,393.3
157,393.9
157.5,394.4
158,394.9
158.5,395.5
159,396.0
159.5,396.5
160,397.1
160.5,397.6
161,398.1
161.5,398.7
162,399.2
162.5,399.8
163,400.3
163.5,400.8
164,401.4
164.5,401.9
165,402.4
165.5,403.0
166,403.5
166.5,404.0
167,404.5
167.5,405.1
168,405.6
168.5,406.1
169,406.7
169.5,407.2
170,407.7
170.5,408.3
171,408.8
171.5,409.3
172,409.9
172.5,410.4
173,410.9
173.5,411.5
174,412.0
174.5,412.5
175,413.1
175.5,413.6
176,414.1
176.5,414.6
177,415.2
177.5,415.7
178,416.2
178.5,416.8
179,417.3
179.5,417.8
180,418.4
180.5,418.9
181,419.4
181.5,419.9
182,420.5
182.5,421.0
183,421.5
183.5,422.1
184,422.6
184.5,423.1
185,423.6
185.5,424.2
186,424.7
186.5,425.2
187,425.8
187.5,426.3
188,426.8
188.5,427.3
189,427.9
189.5,428.4
190,428.9
190.5,429.5
191,430.0
191.5,430.5
192,431.0
192.5,431.6
193,432.1
193.5,432.6
194,433.1
194.5,433.7
195,434.2
195.5,434.7
196,435.2
196.5,435.8
197,436.3
197.5,436.8
198,437.3
198.5,437.9
199,438.4
199.5,438.9
200,439.4
200.5,440.0
201,440.5
201.5,441.0
202,441.5
202.5,442.1
203,442.6
203.5,443.1
204,443.6
204.5,444.2
205,444.7
205.5,445.2
206,445.7
206.5,446.2
207,446.8
207.5,447.3
208,447.8
208.5,448.3
209,448.9
209.5,449.4
210,449.9
210.5,450.4
211,450.9
211.5,451.5
212,452.0
212.5,452.5
213,453.0
213.5,453.6
214,454.1
214.5,454.6
215,455.1
215.5,455.6
216,456.2
216.5,456.7
217,457.2
217.5,457.7
218,458.2
218.5,458.8
219,459.3
219.5,459.8
220,460.3
220.5,460.8
221,461.4
221.5,461.9
222,462.4
222.5,462.9
223,463.4
223.5,464.0
224,464.5
224.5,465.0
225,465.5
225.5,466.0
226,466.5
226.5,467.1
227,467.6
227.5,468.1
228,468.6
228.5,469.1
229,469.7
229.5,470.2
230,470.7
230.5,471.2
231,471.7
231.5,472.2
232,472.8
232.5,473.3
233,473.8
233.5,474.3
234,474.8
234.5,475.3
235,475.9
235.5,476.4
236,476.9
236.5,477.4
237,477.9
237.5,478.4
238,479.0
238.5,479.5
239,480.0
239.5,480.5
240,481.0
240.5,481.5
241,482.0
241.5,482.6
242,483.1
242.5,483.6
243,484.1
243.5,484.6
244,485.1
244.5,485.6
245,486.2
245.5,486.7
246,487.2
246.5,487.7
247,488.2
247.5,488.7
248,489.2
248.5,489.8
249,490.3
249.5,490.8
250,491.3
250.5,491.8
251,492.3
251.5,492.8
252,493.4
252.5,493.9
253,494.4
253.5,494.9
254,495.4
254.5,495.9
255,496.4
255.5,496.9
256,497.5
256.5,498.0
257,498.5
257.5,499.0
258,499.5
258.5,500.0
259,500.5
259.5,501.0
260,501.5
260.5,502.1
261,502.6
261.5,503.1
262,503.6
262.5,504.1
263,504.6
263.5,505.1
264,505.6
264.5,506.1
265,506.6
265.5,507.2
266,507.7
266.5,508.2
267,508.7
267.5,509.2
268,509.7
268.5,510.2
269,510.7
269.5,511.2
270,511.7
270.5,512.2
271,512.8
271.5,513.3
272,513.8
272.5,514.3
273,514.8
273.5,515.3
274,515.8
274.5,516.3
275,516.8
275.5,517.3
276,517.8
276.5,518.3
277,518.8
277.5,519.3
278,519.9
278.5,520.4
279,520.9
279.5,521.4
280,521.9
280.5,522.4
281,522.9
281.5,523.4
282,523.9
282.5,524.4
283,524.9
283.5,525.4
284,525.9
284.5,526.4
285,526.9
285.5,527.4
286,527.9
286.5,528.4
287,528.9
287.5,529.4
288,529.9
288.5,530.4
289,530.9
289.5,531.4
290,531.9
290.5,532.4
291,532.9
291.5,533.4
292,533.9
292.5,534.4
293,534.9
293.5,535.4
294,535.9
294.5,536.4
295,536.9
295.5,537.4
296,537.9
296.5,538.4
297,538.9
297.5,539.4
298,539.9
298.5,540.4
299,540.9
299.5,541.4
300,541.9
300.5,542.4
301,542.9
301.5,543.4
302,543.9
302.5,544.4
303,544.9
303.5,545.3
304,545.8
304.5,546.3
305,546.8
305.5,547.3
306,547.8
306.5,548.3
307,548.8
307.5,549.3
308,549.7
308.5,550.2
309,550.7
309.5,551.2
310,551.7
310.5,552.2
311,552.6
311.5,553.1
312,553.6
312.5,554.1
313,554.6
313.5,555.1
314,555.5
314.5,556.0
315,556.5
315.5,557.0
316,557.4
316.5,557.9
317,558.4
317.5,558.9
318,559.3
318.5,559.8
319,560.3
319.5,560.8
320,561.2
320.5,561.7
321,562.2
321.5,562.7
322,563.1
322.5,563.6
323,564.1
323.5,564.5
324,565.0
324.5,565.5
325,565.9
325.5,566.4
326,566.8
326.5,567.3
327,567.8
327.5,568.2
328,568.7
328.5,569.1
329,569.6
329.5,570.0
330,570.5
330.5,571.0
331,571.4
331.5,571.9
332,572.3
332.5,572.8
333,573.2
333.5,573.7
334,574.1
334.5,574.5
335,575.0
335.5,575.4
336,575.9
336.5,576.3
337,576.8
337.5,577.2
338,577.6
338.5,578.1
339,578.5
339.5,578.9
340,579.4
340.5,579.8
341,580.2
341.5,580.7
342,581.1
342.5,581.5
343,581.9
343.5,582.4
344,582.8
344.5,583.2
345,583.6
345.5,584.1
346,584.5
346.5,584.9
347,585.3
347.5,585.7
348,586.1
348.5,586.6
349,587.0
349.5,587.4
350,587.8
350.5,588.2
351,588.6
351.5,589.0
352,589.4
352.5,589.8
353,590.2
353.5,590.6
354,591.0
354.5,591.4
355,591.8
355.5,592.2
356,592.6
356.5,593.0
357,593.4
357.5,593.8
358,594.2
358.5,594.6
359,595.0
359.5,595.3
360,595.7
360.5,596.1
361,596.5
361.5,596.9
362,597.3
362.5,597.6
363,598.0
363.5,598.4
364,598.8
364.5,599.1
365,599.5
365.5,599.9
366,600.3
366.5,600.6
367,601.0
367.5,601.4
368,601.8
368.5,602.1
369,602.5
369.5,602.9
370,603.2
370.5,603.6
371,604.0
371.5,604.3
372,604.7
372.5,605.1
373,605.4
373.5,605.8
374,606.1
374.5,606.5
375,606.9
375.5,607.2
376,607.6
376.5,607.9
377,608.3
377.5,608.7
378,609.0
378.5,609.4
379,609.7
379.5,610.1
380,610.4
380.5,610.8
381,611.2
381.5,611.5
382,611.9
382.5,612.2
383,612.6
383.5,613.0
384,613.3
384.5,613.7
385,614.0
385.5,614.4
386,614.8
386.5,615.1
387,615.5
387.5,615.8
388,616.2
388.5,616.6
389,616.9
389.5,617.3
390,617.7
390.5,618.0
391,618.4
391.5,618.8
392,619.1
392.5,619.5
393,619.9
393.5,620.2
394,620.6
394.5,621.0
395,621.4
395.5,621.7
396,622.1
396.5,622.5
397,622.9
397.5,623.3
398,623.6
398.5,624.0
399,624.4
399.5,624.8
400,625.2
400.5,625.6
401,626.0
401.5,626.4
402,626.8
402.5,627.2
403,627.6
403.5,628.0
404,628.4
404.5,628.8
405,629.2
405.5,629.6
406,630.0
406.5,630.5
407,630.9
407.5,631.3
408,631.7
408.5,632.2
409,632.6
409.5,633.0
410,633.5
410.5,633.9
411,634.4
411.5,634.8
412,635.3
412.5,635.7
413,636.2
413.5,636.7
414,637.1
414.5,637.6
415,638.1
415.5,638.6
416,639.0
416.5,639.5
417,640.0
417.5,640.5
418,641.0
418.5,641.5
419,642.1
419.5,642.6
420,643.1
420.5,643.6
421,644.2
421.5,644.7
422,645.3
422.5,645.8
423,646.4
423.5,646.9
424,647.5
424.5,648.1
425,648.7
425.5,649.3
426,649.9
426.5,650.5
427,651.1
427.5,651.7
428,652.4
428.5,653.0
429,653.7
429.5,654.3
430,655.0
430.5,655.7
431,656.4
431.5,657.1
432,657.8
432.5,658.5
433,659.3
433.5,660.0
434,660.8
434.5,661.6
435,662.4
435.5,663.2
436,664.0
436.5,664.9
437,665.7
437.5,666.6
438,667.5
438.5,668.4
439,669.4
439.5,670.4
440,671.3
440.5,672.4
441,673.4
441.5,674.5
442,675.6
442.5,676.8
443,677.9
443.5,679.2
444,680.4
444.5,681.7
445,683.1
445.5,684.5
446,686.0
446.5,687.5
447,689.1
447.5,690.8
448,692.6
448.5,694.5
449,696.5
449.5,698.7
450,701.0
450.5,703.5
451,706.3
451.5,709.3
452,712.7
452.5,716.6
453,721.2
453.5,726.6
454,733.4
454.5,742.6
455,756.2
455.5,772.3
456,761.9
456.5,780.0
457,792.4
457.5,801.5
458,808.7
458.5,814.5
459,819.4
459.5,823.6
460,827.2
460.5,830.4
461,833.2
461.5,835.8
462,838.1
462.5,840.2
463,842.2
463.5,844.0
464,845.6
464.5,847.2
465,848.6
465.5,849.9
466,851.2
466.5,852.4
467,853.5
467.5,854.6
468,855.6
468.5,856.5
469,857.5
469.5,858.3
470,859.1
470.5,859.9
471,860.7
471.5,861.4
472,862.1
472.5,862.8
473,863.4
473.5,864.0
474,864.6
474.5,865.2
475,865.8
475.5,866.3
476,866.8
476.5,867.3
477,867.8
477.5,868.3
478,868.8
478.5,869.2
479,869.7
479.5,870.1
480,870.5
480.5,870.9
481,871.3
481.5,871.7
482,872.1
482.5,872.4
483,872.8
483.5,873.1
484,873.5
484.5,873.8
485,874.1
485.5,874.4
486,874.7
486.5,875.0
487,875.3
487.5,875.6
488,875.9
488.5,876.2
489,876.5
489.5,876.7
490,877.0
490.5,877.3
491,877.5
491.5,877.8
492,878.0
492.5,878.3
493,878.5
493.5,878.7
494,879.0
494.5,879.2
495,879.4
495.5,879.6
496,879.8
496.5,880.0
497,880.2
497.5,880.4
498,880.6
498.5,880.8
499,881.0
499.5,881.2
500,881.4