File: Non-charring/PMMA/Sandia/Sandia_TGA_Ar_10K_2.csv
Time,Temperature,Mass
[s],[K],[mg]
1200.35,308.35,9.00E-03
1316.217,308.75,8.00E-03
1342.63,309.15,7.12E-03
1360.99,309.55,6.86E-03
1375.29,309.95,5.92E-03
1387.42,310.35,5.25E-03
1398.21,310.75,4.06E-03
1407.81,311.15,3.71E-03
1416.597,311.55,3.62E-03
1424.76,311.95,4.00E-03
1432.33,312.35,3.09E-03
1439.47,312.75,3.00E-03
1446.29,313.15,3.09E-03
1452.71,313.55,1.03E-03
1458.93,313.95,1.01E-03
1464.91,314.35,9.61E-04
1470.645,314.75,8.10E-04
1476.2,315.15,1.07E-03
1481.58,315.55,4.43E-04
1486.79,315.95,-1.98E-04
1491.85,316.35,9.12E-05
1496.77,316.75,-2.04E-03
1501.584,317.15,4.66E-05
1506.24,317.55,-1.07E-04
1510.809,317.95,6.45E-05
1515.288,318.35,-1.07E-03
1519.69,318.75,-1.16E-03
1524.05,319.15,-7.63E-04
1528.31,319.55,-2.70E-03
1532.51,319.95,-2.01E-03
1536.591,320.35,-3.00E-03
1540.62,320.75,-2.97E-03
1544.61,321.15,-4.70E-03
1548.55,321.55,-3.60E-03
1552.443,321.95,-2.11E-03
1556.25,322.35,-1.05E-03
1560.036,322.75,-7.58E-04
1563.76,323.15,-7.90E-04
1567.449,323.55,-1.79E-03
1571.07,323.95,-1.95E-03
1574.67,324.35,-3.13E-03
1578.23,324.75,-4.01E-03
1581.75,325.15,-2.71E-03
1585.22,325.55,-3.19E-03
1588.659,325.95,-3.16E-03
1592.079,326.35,-2.98E-03
1595.46,326.75,-2.93E-03
1598.814,327.15,-4.84E-03
1602.15,327.55,-4.12E-03
1605.44,327.95,-4.89E-03
1608.71,328.35,-4.75E-03
1611.95,328.75,-5.00E-03
1615.179,329.15,-4.05E-03
1618.38,329.55,-5.77E-03
1621.56,329.95,-4.98E-03
1624.73,330.35,-5.04E-03
1627.851,330.75,-5.94E-03
1630.95,331.15,-5.71E-03
1634.03,331.55,-4.99E-03
1637.08,331.95,-4.92E-03
1640.12,332.35,-3.05E-03
1643.14,332.75,-3.98E-03
1646.13,333.15,-5.04E-03
1649.13,333.55,-2.96E-03
1652.1,333.95,-2.96E-03
1655.04,334.35,-5.15E-03
1657.96,334.75,-2.74E-03
1660.857,335.15,-3.57E-03
1663.75,335.55,-3.09E-03
1666.632,335.95,-2.91E-03
1669.5,336.35,-3.06E-03
1672.34,336.75,-2.80E-03
1675.17,337.15,-4.04E-03
1677.98,337.55,-2.07E-03
1680.78,337.95,-2.52E-03
1683.56,338.35,-2.66E-03
1686.34,338.75,-4.00E-03
1689.1,339.15,-1.83E-03
1691.85,339.55,-4.12E-03
1694.58,339.95,-3.90E-03
1697.31,340.35,-2.01E-03
1700.02,340.75,-1.02E-03
1702.72,341.15,6.93E-04
1705.41,341.55,9.37E-05
1708.09,341.95,-9.00E-04
1710.75,342.35,-3.01E-03
1713.405,342.75,-2.96E-03
1716.06,343.15,-5.01E-03
1718.7,343.55,-4.99E-03
1721.34,343.95,-6.95E-03
1723.959,344.35,-5.92E-03
1726.56,344.75,-6.96E-03
1729.17,345.15,-5.00E-03
1731.75,345.55,-5.10E-03
1734.33,345.95,-5.00E-03
1736.91,346.35,-4.00E-03
1739.47,346.75,-1.71E-03
1742.02,347.15,-2.96E-03
1744.58,347.55,-2.02E-03
1747.12,347.95,-2.00E-03
1749.645,348.35,-3.30E-03
1752.17,348.75,-1.05E-03
1754.69,349.15,-1.97E-03
1757.2,349.55,-1.95E-03
1759.71,349.95,-2.95E-03
1762.2,350.35,-3.01E-03
1764.7,350.75,-3.12E-03
1767.2,351.15,-3.99E-03
1769.68,351.55,-2.97E-03
1772.14,351.95,-4.00E-03
1774.59,352.35,-3.04E-03
1777.029,352.75,-2.94E-03
1779.46,353.15,-2.13E-03
1781.9,353.55,1.94E-04
1784.34,353.95,-1.49E-07
1786.78,354.35,-3.37E-04
1789.191,354.75,-4.98E-05
1791.61,355.15,-9.73E-04
1794.01,355.55,-1.42E-03
1796.41,355.95,-1.98E-03
1798.8,356.35,-4.22E-03
1801.185,356.75,-3.98E-03
1803.57,357.15,-3.03E-03
1805.96,357.55,-3.31E-03
1808.32,357.95,-3.76E-03
1810.67,358.35,-8.28E-04
1813.03,358.75,-9.48E-04
1815.38,359.15,-3.00E-03
1817.73,359.55,-9.86E-04
1820.06,359.95,-9.90E-04
1822.41,360.35,-3.10E-03
1824.74,360.75,-1.65E-03
1827.06,361.15,-2.11E-03
1829.38,361.55,-8.88E-04
1831.68,361.95,-7.70E-04
1833.98,362.35,-1.00E-03
1836.28,362.75,-9.84E-04
1838.565,363.15,-1.58E-04
1840.84,363.55,9.40E-04
1843.12,363.95,3.02E-03
1845.393,364.35,3.01E-03
1847.661,364.75,2.01E-03
1849.93,365.15,2.01E-03
1852.19,365.55,9.38E-04
1854.45,365.95,2.96E-03
1856.7,366.35,2.06E-03
1858.95,366.75,2.00E-03
1861.19,367.15,1.61E-03
1863.42,367.55,9.97E-04
1865.66,367.95,2.90E-03
1867.88,368.35,9.83E-04
1870.11,368.75,1.03E-03
1872.33,369.15,3.01E-03
1874.55,369.55,4.28E-03
1876.779,369.95,1.98E-03
1878.99,370.35,2.00E-03
1881.2,370.75,2.00E-03
1883.406,371.15,2.01E-03
1885.61,371.55,-1.10E-04
1887.81,371.95,1.95E-06
1890,372.35,-2.18E-07
1892.18,372.75,-5.51E-06
1894.371,373.15,-2.13E-03
1896.56,373.55,-2.00E-03
1898.73,373.95,-2.00E-03
1900.91,374.35,-2.01E-03
1903.08,374.75,-8.90E-04
1905.25,375.15,-1.69E-03
1907.42,375.55,-9.98E-04
1909.59,375.95,7.86E-06
1911.75,376.35,1.16E-03
1913.92,376.75,1.01E-03
1916.08,377.15,9.10E-05
1918.23,377.55,-2.40E-05
1920.384,377.95,-9.91E-04
1922.535,378.35,-1.00E-03
1924.68,378.75,-1.18E-03
1926.82,379.15,-2.00E-03
1928.97,379.55,-2.00E-03
1931.11,379.95,-2.09E-03
1933.25,380.35,-9.58E-04
1935.39,380.75,-1.00E-03
1937.53,381.15,-9.92E-04
1939.67,381.55,-2.08E-03
1941.79,381.95,-2.20E-03
1943.92,382.35,7.86E-05
1946.05,382.75,-1.15E-03
1948.16,383.15,2.12E-03
1950.28,383.55,2.00E-03
1952.4,383.95,2.01E-03
1954.52,384.35,5.74E-05
1956.64,384.75,3.97E-06
1958.75,385.15,3.72E-10
1960.87,385.55,-1.86E-09
1962.98,385.95,-2.22E-08
1965.08,386.35,1.53E-05
1967.19,386.75,-2.08E-03
1969.3,387.15,-2.10E-03
1971.41,387.55,-9.98E-04
1973.51,387.95,-3.88E-04
1975.61,388.35,-9.62E-07
1977.71,388.75,3.22E-08
1979.8,389.15,-1.56E-10
1981.899,389.55,7.93E-08
1984,389.95,2.14E-06
1986.1,390.35,-1.18E-03
1988.19,390.75,-2.00E-03
1990.28,391.15,-2.00E-03
1992.37,391.55,-2.00E-03
1994.45,391.95,-2.00E-03
1996.53,392.35,-2.03E-03
1998.61,392.75,1.55E-05
2000.68,393.15,-2.11E-06
2002.755,393.55,-5.92E-04
2004.83,393.95,7.84E-05
2006.9,394.35,9.25E-07
2008.974,394.75,-1.17E-08
2011.044,395.15,-6.90E-11
2013.12,395.55,-1.08E-10
2015.19,395.95,-2.19E-09
2017.25,396.35,1.04E-06
2019.309,396.75,-2.06E-05
2021.364,397.15,-1.94E-03
2023.42,397.55,-2.00E-03
2025.47,397.95,-2.00E-03
2027.52,398.35,-2.03E-03
2029.58,398.75,-2.99E-03
2031.621,399.15,-3.00E-03
2033.67,399.55,-3.02E-03
2035.72,399.95,-3.97E-03
2037.76,400.35,-4.00E-03
2039.81,400.75,-3.99E-03
2041.85,401.15,-1.70E-03
2043.89,401.55,-3.00E-03
2045.93,401.95,-3.13E-03
2047.97,402.35,-1.03E-03
2050.02,402.75,-8.11E-04
2052.06,403.15,4.11E-05
2054.085,403.55,1.41E-07
2056.11,403.95,6.27E-05
2058.141,404.35,-1.66E-03
2060.16,404.75,-2.00E-03
2062.173,405.15,-2.97E-03
2064.19,405.55,-3.77E-03
2066.21,405.95,-4.00E-03
2068.23,406.35,-4.00E-03
2070.24,406.75,-3.99E-03
2072.25,407.15,-5.08E-03
2074.26,407.55,-5.00E-03
2076.27,407.95,-5.00E-03
2078.28,408.35,-5.00E-03
2080.28,408.75,-4.89E-03
2082.28,409.15,-5.99E-03
2084.29,409.55,-6.10E-03
2086.29,409.95,-4.05E-03
2088.3,410.35,-4.00E-03
2090.3,410.75,-4.00E-03
2092.308,411.15,-4.00E-03
2094.3,411.55,-4.00E-03
2096.31,411.95,-4.01E-03
2098.3,412.35,-5.09E-03
2100.29,412.75,-5.00E-03
2102.29,413.15,-5.00E-03
2104.28,413.55,-5.00E-03
2106.27,413.95,-5.00E-03
2108.26,414.35,-4.99E-03
2110.251,414.75,-6.00E-03
2112.24,415.15,-7.00E-03
2114.22,415.55,-8.06E-03
2116.21,415.95,-8.00E-03
2118.19,416.35,-8.03E-03
2120.18,416.75,-8.99E-03
2122.17,417.15,-9.00E-03
2124.15,417.55,-9.01E-03
2126.13,417.95,-8.94E-03
2128.1,418.35,-1.20E-02
2130.081,418.75,-1.20E-02
2132.05,419.15,-1.20E-02
2134.02,419.55,-1.20E-02
2135.99,419.95,-1.20E-02
2137.974,420.35,-1.20E-02
2139.95,420.75,-1.20E-02
2141.93,421.15,-1.30E-02
2143.899,421.55,-1.52E-02
2145.87,421.95,-1.50E-02
2147.841,422.35,-1.70E-02
2149.81,422.75,-1.70E-02
2151.78,423.15,-1.70E-02
2153.75,423.55,-1.70E-02
2155.72,423.95,-1.70E-02
2157.69,424.35,-1.70E-02
2159.66,424.75,-1.70E-02
2161.63,425.15,-1.70E-02
2163.6,425.55,-1.70E-02
2165.57,425.95,-1.70E-02
2167.533,426.35,-1.70E-02
2169.5,426.75,-1.74E-02
2171.472,427.15,-1.90E-02
2173.43,427.55,-1.90E-02
2175.4,427.95,-1.90E-02
2177.36,428.35,-2.12E-02
2179.32,428.75,-2.10E-02
2181.28,429.15,-2.10E-02
2183.24,429.55,-2.10E-02
2185.2,429.95,-2.18E-02
2187.16,430.35,-2.30E-02
2189.13,430.75,-2.30E-02
2191.09,431.15,-2.49E-02
2193.06,431.55,-2.60E-02
2195.022,431.95,-2.66E-02
2196.99,432.35,-2.90E-02
2198.95,432.75,-2.93E-02
2200.911,433.15,-3.00E-02
2202.87,433.55,-3.09E-02
2204.829,433.95,-3.10E-02
2206.794,434.35,-3.10E-02
2208.753,434.75,-3.09E-02
2210.72,435.15,-3.20E-02
2212.689,435.55,-3.20E-02
2214.66,435.95,-3.31E-02
2216.63,436.35,-3.28E-02
2218.59,436.75,-3.50E-02
2220.555,437.15,-3.60E-02
2222.52,437.55,-3.58E-02
2224.48,437.95,-3.80E-02
2226.45,438.35,-3.80E-02
2228.42,438.75,-4.02E-02
2230.39,439.15,-4.00E-02
2232.36,439.55,-4.00E-02
2234.32,439.95,-4.05E-02
2236.29,440.35,-4.20E-02
2238.255,440.75,-4.30E-02
2240.21,441.15,-4.50E-02
2242.18,441.55,-4.59E-02
2244.14,441.95,-4.68E-02
2246.11,442.35,-4.90E-02
2248.07,442.75,-4.89E-02
2250.04,443.15,-5.20E-02
2252,443.55,-5.21E-02
2253.96,443.95,-5.40E-02
2255.93,444.35,-5.50E-02
2257.9,444.75,-5.59E-02
2259.86,445.15,-5.88E-02
2261.82,445.55,-5.90E-02
2263.78,445.95,-6.12E-02
2265.75,446.35,-6.10E-02
2267.71,446.75,-6.19E-02
2269.67,447.15,-6.40E-02
2271.639,447.55,-6.50E-02
2273.6,447.95,-6.49E-02
2275.566,448.35,-6.60E-02
2277.534,448.75,-6.80E-02
2279.499,449.15,-6.97E-02
2281.47,449.55,-7.28E-02
2283.43,449.95,-7.71E-02
2285.39,450.35,-7.92E-02
2287.35,450.75,-7.99E-02
2289.32,451.15,-8.29E-02
2291.283,451.55,-8.30E-02
2293.25,451.95,-8.52E-02
2295.21,452.35,-8.50E-02
2297.17,452.75,-8.50E-02
2299.13,453.15,-8.70E-02
2301.1,453.55,-8.81E-02
2303.06,453.95,-8.89E-02
2305.02,454.35,-9.00E-02
2306.982,454.75,-9.17E-02
2308.95,455.15,-9.44E-02
2310.91,455.55,-9.60E-02
2312.87,455.95,-9.90E-02
2314.83,456.35,-0.10201
2316.801,456.75,-0.104
2318.77,457.15,-0.10601
2320.73,457.55,-0.1069
2322.69,457.95,-0.10861
2324.65,458.35,-0.11107
2326.62,458.75,-0.11117
2328.58,459.15,-0.11298
2330.535,459.55,-0.11602
2332.5,459.95,-0.11795
2334.46,460.35,-0.11894
2336.42,460.75,-0.11987
2338.38,461.15,-0.12248
2340.34,461.55,-0.12297
2342.3,461.95,-0.12495
2344.257,462.35,-0.127
2346.21,462.75,-0.12803
2348.17,463.15,-0.12899
2350.14,463.55,-0.12991
2352.1,463.95,-0.13076
2354.055,464.35,-0.13303
2356.02,464.75,-0.13513
2357.98,465.15,-0.13775
2359.94,465.55,-0.13998
2361.9,465.95,-0.14095
2363.86,466.35,-0.14217
2365.82,466.75,-0.1452
2367.78,467.15,-0.14651
2369.74,467.55,-0.14698
2371.71,467.95,-0.15013
2373.67,468.35,-0.15112
2375.64,468.75,-0.15203
2377.61,469.15,-0.15305
2379.576,469.55,-0.15283
2381.54,469.95,-0.15496
2383.51,470.35,-0.15502
2385.47,470.75,-0.15713
2387.43,471.15,-0.15914
2389.39,471.55,-0.15996
2391.35,471.95,-0.161
2393.31,472.35,-0.16314
2395.272,472.75,-0.16519
2397.234,473.15,-0.16504
2399.2,473.55,-0.16698
2401.17,473.95,-0.16685
2403.13,474.35,-0.16885
2405.11,474.75,-0.16996
2407.08,475.15,-0.17119
2409.06,475.55,-0.17252
2411.03,475.95,-0.17283
2412.99,476.35,-0.17501
2414.97,476.75,-0.17722
2416.94,477.15,-0.17678
2418.906,477.55,-0.17895
2420.88,477.95,-0.18018
2422.851,478.35,-0.18151
2424.831,478.75,-0.18192
2426.81,479.15,-0.18299
2428.78,479.55,-0.18381
2430.75,479.95,-0.18595
2432.73,480.35,-0.18796
2434.71,480.75,-0.18788
2436.681,481.15,-0.18998
2438.652,481.55,-0.19107
2440.63,481.95,-0.19403
2442.603,482.35,-0.19402
2444.574,482.75,-0.19507
2446.55,483.15,-0.195
2448.522,483.55,-0.19602
2450.5,483.95,-0.19707
2452.479,484.35,-0.19882
2454.46,484.75,-0.19899
2456.44,485.15,-0.19995
2458.422,485.55,-0.20101
2460.402,485.95,-0.20101
2462.39,486.35,-0.20321
2464.374,486.75,-0.203
2466.35,487.15,-0.203
2468.334,487.55,-0.20521
2470.31,487.95,-0.205
2472.29,488.35,-0.205
2474.28,488.75,-0.205
2476.26,489.15,-0.205
2478.24,489.55,-0.205
2480.22,489.95,-0.205
2482.2,490.35,-0.205
2484.192,490.75,-0.205
2486.175,491.15,-0.20503
2488.16,491.55,-0.206
2490.14,491.95,-0.20668
2492.13,492.35,-0.207
2494.11,492.75,-0.2081
2496.1,493.15,-0.20789
2498.08,493.55,-0.20899
2500.06,493.95,-0.21008
2502.05,494.35,-0.2099
2504.04,494.75,-0.21099
2506.02,495.15,-0.21095
2508.02,495.55,-0.21285
2510.01,495.95,-0.21399
2512.01,496.35,-0.214
2514,496.75,-0.214
2515.99,497.15,-0.21399
2517.984,497.55,-0.21503
2519.97,497.95,-0.215
2521.97,498.35,-0.215
2523.96,498.75,-0.215
2525.95,499.15,-0.21504
2527.95,499.55,-0.21715
2529.942,499.95,-0.217
2531.94,500.35,-0.217
2533.94,500.75,-0.217
2535.93,501.15,-0.217
2537.93,501.55,-0.21687
2539.923,501.95,-0.21896
2541.92,502.35,-0.219
2543.91,502.75,-0.21948
2545.92,503.15,-0.22101
2547.92,503.55,-0.221
2549.92,503.95,-0.221
2551.92,504.35,-0.221
2553.92,504.75,-0.221
2555.93,505.15,-0.221
2557.93,505.55,-0.221
2559.93,505.95,-0.221
2561.93,506.35,-0.221
2563.93,506.75,-0.221
2565.94,507.15,-0.221
2567.94,507.55,-0.221
2569.94,507.95,-0.221
2571.94,508.35,-0.221
2573.95,508.75,-0.221
2575.96,509.15,-0.221
2577.97,509.55,-0.221
2579.98,509.95,-0.221
2581.98,510.35,-0.221
2583.993,510.75,-0.221
2586,511.15,-0.221
2588.01,511.55,-0.2211
2590.02,511.95,-0.22494
2592.03,512.35,-0.225
2594.04,512.75,-0.225
2596.047,513.15,-0.225
2598.06,513.55,-0.22499
2600.07,513.95,-0.22679
2602.077,514.35,-0.227
2604.08,514.75,-0.22689
2606.1,515.15,-0.228
2608.11,515.55,-0.22798
2610.12,515.95,-0.22692
2612.139,516.35,-0.227
2614.15,516.75,-0.227
2616.17,517.15,-0.2271
2618.196,517.55,-0.226
2620.22,517.95,-0.226
2622.24,518.35,-0.226
2624.25,518.75,-0.226
2626.28,519.15,-0.226
2628.3,519.55,-0.22601
2630.31,519.95,-0.22697
2632.33,520.35,-0.22766
2634.354,520.75,-0.228
2636.38,521.15,-0.2291
2638.395,521.55,-0.22977
2640.41,521.95,-0.23105
2642.44,522.35,-0.2308
2644.46,522.75,-0.23298
2646.48,523.15,-0.233
2648.5,523.55,-0.23289
2650.52,523.95,-0.234
2652.55,524.35,-0.234
2654.57,524.75,-0.234
2656.59,525.15,-0.23397
2658.615,525.55,-0.23594
2660.64,525.95,-0.236
2662.66,526.35,-0.236
2664.69,526.75,-0.236
2666.71,527.15,-0.23602
2668.75,527.55,-0.23794
2670.77,527.95,-0.238
2672.81,528.35,-0.238
2674.84,528.75,-0.238
2676.87,529.15,-0.238
2678.9,529.55,-0.23799
2680.932,529.95,-0.23692
2682.97,530.35,-0.237
2685,530.75,-0.23903
2687.03,531.15,-0.24184
2689.068,531.55,-0.24298
2691.1,531.95,-0.243
2693.145,532.35,-0.243
2695.18,532.75,-0.2441
2697.22,533.15,-0.24564
2699.26,533.55,-0.24592
2701.3,533.95,-0.24795
2703.34,534.35,-0.248
2705.38,534.75,-0.24985
2707.42,535.15,-0.25181
2709.465,535.55,-0.25215
2711.51,535.95,-0.25301
2713.55,536.35,-0.253
2715.6,536.75,-0.253
2717.64,537.15,-0.253
2719.68,537.55,-0.25281
2721.73,537.95,-0.25189
2723.78,538.35,-0.25299
2725.82,538.75,-0.25378
2727.87,539.15,-0.25598
2729.916,539.55,-0.2582
2731.96,539.95,-0.258
2734.01,540.35,-0.258
2736.063,540.75,-0.25799
2738.11,541.15,-0.25895
2740.16,541.55,-0.259
2742.22,541.95,-0.25899
2744.28,542.35,-0.26118
2746.34,542.75,-0.26103
2748.39,543.15,-0.26198
2750.45,543.55,-0.26287
2752.51,543.95,-0.26396
2754.57,544.35,-0.265
2756.63,544.75,-0.26584
2758.69,545.15,-0.26639
2760.75,545.55,-0.26801
2762.82,545.95,-0.268
2764.88,546.35,-0.268
2766.94,546.75,-0.268
2769.01,547.15,-0.26805
2771.08,547.55,-0.27004
2773.15,547.95,-0.27216
2775.23,548.35,-0.27394
2777.3,548.75,-0.27656
2779.38,549.15,-0.27985
2781.46,549.55,-0.28113
2783.53,549.95,-0.2819
2785.6,550.35,-0.28301
2787.67,550.75,-0.28415
2789.742,551.15,-0.286
2791.82,551.55,-0.28811
2793.89,551.95,-0.28993
2795.973,552.35,-0.29192
2798.05,552.75,-0.29402
2800.13,553.15,-0.29593
2802.216,553.55,-0.29762
2804.3,553.95,-0.29911
2806.39,554.35,-0.30008
2808.48,554.75,-0.30099
2810.56,555.15,-0.30212
2812.65,555.55,-0.30395
2814.747,555.95,-0.30538
2816.84,556.35,-0.30594
2818.92,556.75,-0.30785
2821.02,557.15,-0.3091
2823.123,557.55,-0.31087
2825.22,557.95,-0.31296
2827.314,558.35,-0.31498
2829.41,558.75,-0.31596
2831.51,559.15,-0.31693
2833.611,559.55,-0.31999
2835.71,559.95,-0.32206
2837.81,560.35,-0.32413
2839.91,560.75,-0.32604
2842.01,561.15,-0.32899
2844.11,561.55,-0.3311
2846.2,561.95,-0.33312
2848.308,562.35,-0.33479
2850.41,562.75,-0.33804
2852.52,563.15,-0.3396
2854.623,563.55,-0.34101
2856.732,563.95,-0.34301
2858.85,564.35,-0.34497
2860.96,564.75,-0.34788
2863.07,565.15,-0.3493
2865.18,565.55,-0.35083
2867.29,565.95,-0.35414
2869.4,566.35,-0.35658
2871.513,566.75,-0.35951
2873.63,567.15,-0.36207
2875.74,567.55,-0.36351
2877.86,567.95,-0.36699
2879.97,568.35,-0.37142
2882.09,568.75,-0.37383
2884.21,569.15,-0.37585
2886.32,569.55,-0.37997
2888.44,569.95,-0.38322
2890.57,570.35,-0.38601
2892.7,570.75,-0.38786
2894.82,571.15,-0.39019
2896.941,571.55,-0.3938
2899.06,571.95,-0.39528
2901.18,572.35,-0.39852
2903.3,572.75,-0.40096
2905.416,573.15,-0.40463
2907.53,573.55,-0.40652
2909.661,573.95,-0.4097
2911.788,574.35,-0.41253
2913.92,574.75,-0.41504
2916.05,575.15,-0.41857
2918.18,575.55,-0.42107
2920.31,575.95,-0.4242
2922.44,576.35,-0.4279
2924.57,576.75,-0.43062
2926.7,577.15,-0.43342
2928.83,577.55,-0.43793
2930.96,577.95,-0.44123
2933.08,578.35,-0.443
2935.21,578.75,-0.44656
2937.35,579.15,-0.449
2939.48,579.55,-0.4521
2941.61,579.95,-0.45403
2943.75,580.35,-0.45842
2945.88,580.75,-0.46133
2948.02,581.15,-0.46384
2950.15,581.55,-0.46845
2952.28,581.95,-0.47185
2954.42,582.35,-0.47498
2956.56,582.75,-0.47701
2958.69,583.15,-0.48017
2960.83,583.55,-0.48212
2962.97,583.95,-0.48456
2965.11,584.35,-0.48972
2967.252,584.75,-0.4938
2969.39,585.15,-0.49904
2971.53,585.55,-0.50396
2973.67,585.95,-0.50829
2975.82,586.35,-0.5111
2977.96,586.75,-0.51491
2980.113,587.15,-0.51839
2982.26,587.55,-0.52092
2984.41,587.95,-0.525
2986.55,588.35,-0.529
2988.69,588.75,-0.53322
2990.84,589.15,-0.53616
2992.99,589.55,-0.53918
2995.14,589.95,-0.54115
2997.288,590.35,-0.54487
2999.44,590.75,-0.54731
3001.6,591.15,-0.55109
3003.747,591.55,-0.55389
3005.9,591.95,-0.55587
3008.058,592.35,-0.55993
3010.22,592.75,-0.56702
3012.38,593.15,-0.57306
3014.53,593.55,-0.58024
3016.69,593.95,-0.58739
3018.85,594.35,-0.59289
3021.01,594.75,-0.59674
3023.163,595.15,-0.60101
3025.32,595.55,-0.60619
3027.49,595.95,-0.61122
3029.65,596.35,-0.61492
3031.81,596.75,-0.62057
3033.978,597.15,-0.62605
3036.141,597.55,-0.63182
3038.31,597.95,-0.63878
3040.476,598.35,-0.64478
3042.64,598.75,-0.64976
3044.81,599.15,-0.65712
3046.977,599.55,-0.66352
3049.14,599.95,-0.66979
3051.31,600.35,-0.67596
3053.48,600.75,-0.68118
3055.65,601.15,-0.6873
3057.81,601.55,-0.69438
3059.98,601.95,-0.70116
3062.15,602.35,-0.708
3064.31,602.75,-0.71506
3066.49,603.15,-0.7234
3068.66,603.55,-0.73156
3070.83,603.95,-0.74052
3073,604.35,-0.74711
3075.177,604.75,-0.75453
3077.36,605.15,-0.76036
3079.54,605.55,-0.76697
3081.71,605.95,-0.77306
3083.89,606.35,-0.78148
3086.07,606.75,-0.79153
3088.25,607.15,-0.80051
3090.43,607.55,-0.80935
3092.61,607.95,-0.81994
3094.79,608.35,-0.83092
3096.97,608.75,-0.84013
3099.16,609.15,-0.85031
3101.35,609.55,-0.85977
3103.54,609.95,-0.8689
3105.723,610.35,-0.8798
3107.916,610.75,-0.88898
3110.1,611.15,-0.90073
3112.29,611.55,-0.91159
3114.49,611.95,-0.92617
3116.68,612.35,-0.94249
3118.87,612.75,-0.95472
3121.06,613.15,-0.96664
3123.25,613.55,-0.97925
3125.44,613.95,-0.99021
3127.629,614.35,-1.00354
3129.81,614.75,-1.01801
3132.01,615.15,-1.0338
3134.2,615.55,-1.04725
3136.386,615.95,-1.06136
3138.58,616.35,-1.07303
3140.78,616.75,-1.08617
3142.98,617.15,-1.1001
3145.18,617.55,-1.11549
3147.38,617.95,-1.13225
3149.58,618.35,-1.14819
3151.79,618.75,-1.166
3153.99,619.15,-1.18334
3156.198,619.55,-1.20201
3158.4,619.95,-1.21967
3160.61,620.35,-1.23748
3162.82,620.75,-1.25693
3165.03,621.15,-1.27554
3167.24,621.55,-1.29287
3169.46,621.95,-1.3121
3171.68,622.35,-1.33066
3173.9,622.75,-1.34831
3176.11,623.15,-1.36859
3178.33,623.55,-1.38882
3180.54,623.95,-1.40864
3182.76,624.35,-1.42908
3184.974,624.75,-1.45015
3187.19,625.15,-1.47139
3189.4,625.55,-1.49342
3191.61,625.95,-1.51561
3193.83,626.35,-1.53896
3196.05,626.75,-1.56279
3198.27,627.15,-1.5862
3200.499,627.55,-1.61047
3202.722,627.95,-1.63384
3204.95,628.35,-1.65796
3207.17,628.75,-1.68289
3209.39,629.15,-1.70995
3211.61,629.55,-1.73574
3213.83,629.95,-1.75959
3216.06,630.35,-1.78462
3218.28,630.75,-1.81166
3220.503,631.15,-1.84039
3222.74,631.55,-1.86455
3224.96,631.95,-1.88841
3227.19,632.35,-1.91452
3229.42,632.75,-1.94331
3231.645,633.15,-1.97394
3233.871,633.55,-2.00235
3236.1,633.95,-2.02945
3238.332,634.35,-2.05348
3240.56,634.75,-2.07874
3242.79,635.15,-2.10749
3245.013,635.55,-2.13647
3247.24,635.95,-2.16496
3249.474,636.35,-2.19471
3251.697,636.75,-2.22432
3253.93,637.15,-2.25465
3256.15,637.55,-2.28438
3258.38,637.95,-2.31133
3260.61,638.35,-2.34108
3262.83,638.75,-2.3711
3265.05,639.15,-2.40212
3267.28,639.55,-2.42919
3269.51,639.95,-2.45806
3271.74,640.35,-2.48442
3273.96,640.75,-2.5161
3276.18,641.15,-2.54963
3278.391,641.55,-2.58362
3280.61,641.95,-2.61684
3282.83,642.35,-2.65125
3285.04,642.75,-2.68734
3287.253,643.15,-2.72143
3289.47,643.55,-2.74992
3291.678,643.95,-2.78053
3293.89,644.35,-2.81302
3296.1,644.75,-2.84915
3298.314,645.15,-2.88253
3300.53,645.55,-2.91353
3302.75,645.95,-2.94405
3304.98,646.35,-2.97633
3307.2,646.75,-3.00764
3309.42,647.15,-3.0401
3311.64,647.55,-3.07707
3313.86,647.95,-3.11467
3316.08,648.35,-3.14895
3318.306,648.75,-3.17734
3320.53,649.15,-3.2099
3322.752,649.55,-3.24476
3324.98,649.95,-3.27939
3327.2,650.35,-3.31291
3329.433,650.75,-3.34264
3331.66,651.15,-3.37248
3333.89,651.55,-3.40222
3336.13,651.95,-3.43374
3338.35,652.35,-3.46372
3340.58,652.75,-3.4945
3342.81,653.15,-3.52401
3345.04,653.55,-3.55549
3347.27,653.95,-3.58688
3349.5,654.35,-3.61835
3351.74,654.75,-3.64814
3353.973,655.15,-3.67798
3356.2,655.55,-3.70667
3358.44,655.95,-3.73366
3360.67,656.35,-3.75915
3362.907,656.75,-3.78382
3365.14,657.15,-3.81195
3367.38,657.55,-3.8363
3369.618,657.95,-3.86213
3371.859,658.35,-3.88811
3374.097,658.75,-3.91241
3376.34,659.15,-3.93757
3378.57,659.55,-3.96135
3380.82,659.95,-3.98382
3383.06,660.35,-4.00713
3385.3,660.75,-4.02847
3387.54,661.15,-4.04989
3389.775,661.55,-4.07227
3392.01,661.95,-4.09175
3394.25,662.35,-4.11149
3396.49,662.75,-4.13225
3398.74,663.15,-4.1519
3400.98,663.55,-4.17133
3403.23,663.95,-4.1889
3405.48,664.35,-4.20806
3407.73,664.75,-4.22679
3409.97,665.15,-4.24379
3412.218,665.55,-4.26071
3414.46,665.95,-4.27567
3416.71,666.35,-4.29367
3418.95,666.75,-4.30631
3421.2,667.15,-4.31978
3423.444,667.55,-4.33159
3425.69,667.95,-4.34384
3427.938,668.35,-4.35711
3430.19,668.75,-4.37431
3432.43,669.15,-4.38727
3434.682,669.55,-4.39673
3436.935,669.95,-4.40618
3439.18,670.35,-4.41586
3441.43,670.75,-4.42616
3443.69,671.15,-4.43759
3445.94,671.55,-4.45151
3448.2,671.95,-4.46735
3450.447,672.35,-4.4792
3452.7,672.75,-4.48784
3454.96,673.15,-4.49609
3457.21,673.55,-4.50544
3459.468,673.95,-4.5125
3461.72,674.35,-4.52292
3463.98,674.75,-4.53047
3466.236,675.15,-4.53883
3468.492,675.55,-4.54923
3470.748,675.95,-4.55699
3473.01,676.35,-4.56561
3475.269,676.75,-4.57364
3477.53,677.15,-4.58058
3479.79,677.55,-4.58818
3482.04,677.95,-4.59659
3484.31,678.35,-4.60529
3486.57,678.75,-4.61195
3488.84,679.15,-4.61517
3491.1,679.55,-4.61893
3493.37,679.95,-4.62481
3495.63,680.35,-4.62874
3497.895,680.75,-4.63549
3500.16,681.15,-4.64102
3502.43,681.55,-4.64388
3504.69,681.95,-4.64695
3506.95,682.35,-4.65164
3509.22,682.75,-4.65718
3511.485,683.15,-4.66107
3513.75,683.55,-4.66442
3516.015,683.95,-4.66772
3518.28,684.35,-4.67333
3520.56,684.75,-4.67701
3522.83,685.15,-4.68069
3525.1,685.55,-4.68566
3527.37,685.95,-4.68949
3529.638,686.35,-4.69414
3531.91,686.75,-4.69693
3534.177,687.15,-4.70056
3536.45,687.55,-4.70202
3538.725,687.95,-4.70384
3541,688.35,-4.70597
3543.28,688.75,-4.70891
3545.55,689.15,-4.71074
3547.824,689.55,-4.71387
3550.095,689.95,-4.7162
3552.37,690.35,-4.717
3554.64,690.75,-4.72007
3556.92,691.15,-4.72283
3559.19,691.55,-4.72393
3561.47,691.95,-4.72682
3563.736,692.35,-4.72799
3566.01,692.75,-4.72995
3568.28,693.15,-4.73216
3570.56,693.55,-4.7338
3572.83,693.95,-4.73612
3575.1,694.35,-4.73796
3577.38,694.75,-4.74038
3579.66,695.15,-4.7398
3581.94,695.55,-4.74188
3584.21,695.95,-4.74408
3586.49,696.35,-4.74605
3588.78,696.75,-4.74577
3591.05,697.15,-4.748
3593.33,697.55,-4.74998
3595.61,697.95,-4.75205
3597.88,698.35,-4.75396
3600.16,698.75,-4.75715
3602.44,699.15,-4.75795
3604.719,699.55,-4.759
3607.01,699.95,-4.75896
3609.294,700.35,-4.76099
3611.58,700.75,-4.7609
3613.86,701.15,-4.76253
3616.14,701.55,-4.76328
3618.41,701.95,-4.76506
3620.69,702.35,-4.76704
3622.98,702.75,-4.767
3625.26,703.15,-4.76803
3627.54,703.55,-4.769
3629.826,703.95,-4.769
3632.115,704.35,-4.769
3634.4,704.75,-4.769
3636.68,705.15,-4.76898
3638.96,705.55,-4.77048
3641.25,705.95,-4.77109
3643.53,706.35,-4.77201
3645.82,706.75,-4.77301
3648.11,707.15,-4.77398
3650.41,707.55,-4.774
3652.7,707.95,-4.774
3654.99,708.35,-4.774
3657.29,708.75,-4.77215
3659.58,709.15,-4.772
3661.87,709.55,-4.772
3664.16,709.95,-4.77208
3666.45,710.35,-4.77112
3668.73,710.75,-4.77298
3671.02,711.15,-4.77464
3673.31,711.55,-4.775
3675.59,711.95,-4.775
3677.88,712.35,-4.77501
3680.17,712.75,-4.77296
3682.464,713.15,-4.773
3684.75,713.55,-4.773
3687.04,713.95,-4.773
3689.33,714.35,-4.773
3691.63,714.75,-4.773
3693.92,715.15,-4.773
3696.21,715.55,-4.773
3698.51,715.95,-4.773
3700.8,716.35,-4.773
3703.09,716.75,-4.773
3705.38,717.15,-4.773
3707.68,717.55,-4.77117
3709.98,717.95,-4.771
3712.28,718.35,-4.771
3714.58,718.75,-4.771
3716.877,719.15,-4.771
3719.18,719.55,-4.77098
3721.48,719.95,-4.77297
3723.77,720.35,-4.77202
3726.07,720.75,-4.772
3728.37,721.15,-4.772
3730.67,721.55,-4.77199
3732.98,721.95,-4.77101
3735.28,722.35,-4.771
3737.58,722.75,-4.771
3739.88,723.15,-4.771
3742.18,723.55,-4.771
3744.477,723.95,-4.77102
3746.78,724.35,-4.77298
3749.08,724.75,-4.77198
3751.39,725.15,-4.772
3753.7,725.55,-4.772
3756.01,725.95,-4.77209
3758.325,726.35,-4.77099
3760.64,726.75,-4.771
3762.95,727.15,-4.771
3765.27,727.55,-4.77107
3767.58,727.95,-4.77
3769.896,728.35,-4.77
3772.215,728.75,-4.77
3774.54,729.15,-4.77
3776.86,729.55,-4.77
3779.18,729.95,-4.77
3781.49,730.35,-4.76898
3783.81,730.75,-4.769
3786.12,731.15,-4.769
3788.43,731.55,-4.7688
3790.76,731.95,-4.77102
3793.08,732.35,-4.771
3795.402,732.75,-4.771
3797.721,733.15,-4.77197
3800.05,733.55,-4.77314
3802.365,733.95,-4.77298
3804.68,734.35,-4.773
3807.003,734.75,-4.77301
3809.33,735.15,-4.7719
3811.65,735.55,-4.772
3813.98,735.95,-4.772
3816.3,736.35,-4.772
3818.63,736.75,-4.772
3820.96,737.15,-4.7719
3823.29,737.55,-4.77311
3825.61,737.95,-4.77241
3827.94,738.35,-4.773
3830.27,738.75,-4.773
3832.599,739.15,-4.773
3834.93,739.55,-4.773
3837.26,739.95,-4.773
3839.595,740.35,-4.773
3841.923,740.75,-4.773
3844.25,741.15,-4.773
3846.58,741.55,-4.77337
3848.92,741.95,-4.774
3851.25,742.35,-4.77401
3853.587,742.75,-4.77193
3855.92,743.15,-4.77201
3858.25,743.55,-4.77299
3860.59,743.95,-4.773
3862.92,744.35,-4.773
3865.263,744.75,-4.77195
3867.6,745.15,-4.771
3869.94,745.55,-4.771
3872.28,745.95,-4.771
3874.61,746.35,-4.771
3876.94,746.75,-4.771
3879.27,747.15,-4.771
3881.6,747.55,-4.7709
3883.926,747.95,-4.77201
3886.25,748.35,-4.772
3888.59,748.75,-4.77199
3890.92,749.15,-4.7742
3893.25,749.55,-4.77374
3895.59,749.95,-4.772
3897.92,750.35,-4.772
3900.26,750.75,-4.772
3902.6,751.15,-4.772
3904.94,751.55,-4.772
3907.29,751.95,-4.772
3909.63,752.35,-4.772
3911.97,752.75,-4.77131
3914.31,753.15,-4.77003
3916.66,753.55,-4.77196
3918.996,753.95,-4.772
3921.33,754.35,-4.772
3923.68,754.75,-4.77206
3926.02,755.15,-4.771
3928.36,755.55,-4.77243
3930.7,755.95,-4.773
3933.04,756.35,-4.773
3935.382,756.75,-4.773
3937.72,757.15,-4.77275
3940.06,757.55,-4.772
3942.41,757.95,-4.772
3944.75,758.35,-4.772
3947.09,758.75,-4.77205
3949.422,759.15,-4.771
3951.76,759.55,-4.771
3954.102,759.95,-4.771
3956.44,760.35,-4.77051
3958.779,760.75,-4.77
3961.12,761.15,-4.77003
3963.468,761.55,-4.77199
3965.811,761.95,-4.77205
3968.15,762.35,-4.772
3970.5,762.75,-4.77302
3972.84,763.15,-4.77383
3975.18,763.55,-4.77377
3977.52,763.95,-4.774
3979.87,764.35,-4.774
3982.21,764.75,-4.774
3984.56,765.15,-4.77396
3986.91,765.55,-4.77211
3989.26,765.95,-4.77099
3991.6,766.35,-4.771
3993.94,766.75,-4.771
3996.282,767.15,-4.771
3998.63,767.55,-4.771
4000.97,767.95,-4.77096
4003.32,768.35,-4.7711
4005.68,768.75,-4.771
4008.03,769.15,-4.771
4010.376,769.55,-4.771
4012.73,769.95,-4.771
4015.074,770.35,-4.771
4017.42,770.75,-4.77091
4019.78,771.15,-4.77
4022.12,771.55,-4.77
4024.47,771.95,-4.77
4026.828,772.35,-4.77084
4029.19,772.75,-4.76994
4031.55,773.15,-4.77
4033.911,773.55,-4.77
4036.27,773.95,-4.76994
4038.63,774.35,-4.76806
4040.98,774.75,-4.76836
4043.337,775.15,-4.769
4045.689,775.55,-4.769
4048.04,775.95,-4.769
4050.4,776.35,-4.77004
4052.754,776.75,-4.77
4055.112,777.15,-4.77
4057.47,777.55,-4.7709
4059.83,777.95,-4.77095
4062.19,778.35,-4.76883
4064.55,778.75,-4.77101
4066.92,779.15,-4.771
4069.28,779.55,-4.771
4071.645,779.95,-4.771
4074.01,780.35,-4.771
4076.379,780.75,-4.771
4078.74,781.15,-4.771
4081.1,781.55,-4.771
4083.47,781.95,-4.77092
4085.83,782.35,-4.77301
4088.19,782.75,-4.773
4090.56,783.15,-4.77299
4092.921,783.55,-4.771
4095.28,783.95,-4.77282
4097.65,784.35,-4.773
4100.01,784.75,-4.773
4102.38,785.15,-4.773
4104.75,785.55,-4.773
4107.12,785.95,-4.77302
4109.493,786.35,-4.77082
4111.86,786.75,-4.771
4114.239,787.15,-4.77052
4116.61,787.55,-4.77
4118.99,787.95,-4.77
4121.36,788.35,-4.76968
4123.73,788.75,-4.76955
4126.11,789.15,-4.771
4128.48,789.55,-4.771
4130.87,789.95,-4.76991
4133.25,790.35,-4.76987
4135.63,790.75,-4.769
4138.02,791.15,-4.769
4140.4,791.55,-4.76902
4142.78,791.95,-4.768
4145.16,792.35,-4.768
4147.54,792.75,-4.76701
4149.93,793.15,-4.767
4152.31,793.55,-4.767
4154.7,793.95,-4.767
4157.08,794.35,-4.767
4159.47,794.75,-4.767
4161.85,795.15,-4.76684
4164.24,795.55,-4.76994
4166.63,795.95,-4.77188
4169.016,796.35,-4.7731
4171.4,796.75,-4.77497
4173.78,797.15,-4.775
4176.16,797.55,-4.77428
4178.541,797.95,-4.774
4180.93,798.35,-4.77406
4183.31,798.75,-4.77595
4185.69,799.15,-4.77611
4188.08,799.55,-4.77454
4190.47,799.95,-4.77299
4192.857,800.35,-4.773
4195.245,800.75,-4.773
4197.63,801.15,-4.773
4200.02,801.55,-4.77301
4202.4,801.95,-4.77189
4204.785,802.35,-4.772
4207.17,802.75,-4.772
4209.55,803.15,-4.77268
4211.937,803.55,-4.77299
4214.33,803.95,-4.773
4216.72,804.35,-4.773
4219.12,804.75,-4.7719
4221.51,805.15,-4.77175
4223.89,805.55,-4.77003
4226.27,805.95,-4.77
4228.665,806.35,-4.77
4231.05,806.75,-4.76998
4233.44,807.15,-4.76804
4235.83,807.55,-4.768
4238.22,807.95,-4.76801
4240.61,808.35,-4.76997
4243,808.75,-4.77011
4245.38,809.15,-4.77302
4247.76,809.55,-4.77401
4250.15,809.95,-4.775
4252.54,810.35,-4.77499
4254.92,810.75,-4.77398
4257.31,811.15,-4.77501
4259.7,811.55,-4.775
4262.08,811.95,-4.775
4264.464,812.35,-4.775
4266.85,812.75,-4.77515
4269.24,813.15,-4.77301
4271.64,813.55,-4.77093
4274.022,813.95,-4.76995
4276.41,814.35,-4.76999
4278.8,814.75,-4.77087
4281.19,815.15,-4.77456
4283.57,815.55,-4.77671
4285.96,815.95,-4.777
4288.35,816.35,-4.777
4290.74,816.75,-4.77567
4293.13,817.15,-4.775
4295.523,817.55,-4.775
4297.91,817.95,-4.77522
4300.3,818.35,-4.77201
4302.69,818.75,-4.77099
4305.06,819.15,-4.76993
4307.44,819.55,-4.7712
4309.82,819.95,-4.77202
4312.21,820.35,-4.77232
4314.6,820.75,-4.77339
4316.99,821.15,-4.774
4319.38,821.55,-4.774
4321.78,821.95,-4.77398
4324.176,822.35,-4.77303
4326.57,822.75,-4.77296
4328.958,823.15,-4.77072
4331.35,823.55,-4.768
4333.74,823.95,-4.76699
4336.13,824.35,-4.767
4338.51,824.75,-4.767
4340.91,825.15,-4.7668
4343.3,825.55,-4.76796
4345.69,825.95,-4.76897
4348.09,826.35,-4.76895
4350.49,826.75,-4.77001
4352.88,827.15,-4.77
4355.28,827.55,-4.77
4357.68,827.95,-4.77
4360.07,828.35,-4.77017
4362.47,828.75,-4.77116
4364.86,829.15,-4.772
4367.25,829.55,-4.772
4369.64,829.95,-4.772
4372.03,830.35,-4.772
4374.429,830.75,-4.772
4376.82,831.15,-4.77209
4379.22,831.55,-4.773
4381.6,831.95,-4.773
4383.99,832.35,-4.773
4386.38,832.75,-4.77299
4388.78,833.15,-4.774
4391.18,833.55,-4.774
4393.575,833.95,-4.77195
4395.97,834.35,-4.772
4398.36,834.75,-4.772
4400.76,835.15,-4.772
4403.14,835.55,-4.772
4405.54,835.95,-4.77203
4407.93,836.35,-4.77
4410.33,836.75,-4.77
4412.72,837.15,-4.77
4415.12,837.55,-4.77
4417.51,837.95,-4.77
4419.91,838.35,-4.77
4422.31,838.75,-4.77
4424.7,839.15,-4.77
4427.09,839.55,-4.77
4429.5,839.95,-4.7701
4431.89,840.35,-4.768
4434.29,840.75,-4.768
4436.69,841.15,-4.768
4439.09,841.55,-4.768
4441.48,841.95,-4.768
4443.87,842.35,-4.768
4446.26,842.75,-4.76786
4448.66,843.15,-4.76999
4451.05,843.55,-4.77206
4453.45,843.95,-4.77185
4455.85,844.35,-4.774
4458.25,844.75,-4.77504
4460.65,845.15,-4.77586
4463.04,845.55,-4.77429
4465.446,845.95,-4.77401
4467.86,846.35,-4.77194
4470.27,846.75,-4.772
4472.67,847.15,-4.772
4475.08,847.55,-4.772
4477.488,847.95,-4.772
4479.894,848.35,-4.77201
4482.291,848.75,-4.77299
4484.7,849.15,-4.773
4487.1,849.55,-4.77395
4489.51,849.95,-4.774
4491.92,850.35,-4.77507
4494.32,850.75,-4.77397
4496.733,851.15,-4.77398
4499.148,851.55,-4.775
4501.56,851.95,-4.775
4503.97,852.35,-4.77401
4506.38,852.75,-4.774
4508.793,853.15,-4.774
4511.2,853.55,-4.77296
4513.6,853.95,-4.77405
4516.02,854.35,-4.774
4518.43,854.75,-4.7739
4520.85,855.15,-4.773
4523.268,855.55,-4.77517
4525.68,855.95,-4.775
4528.1,856.35,-4.77505
4530.516,856.75,-4.77399
4532.93,857.15,-4.774
4535.34,857.55,-4.774
4537.76,857.95,-4.774
4540.18,858.35,-4.77398
4542.6,858.75,-4.77303
4545.01,859.15,-4.773
4547.43,859.55,-4.773
4549.85,859.95,-4.773
4552.27,860.35,-4.77301
4554.69,860.75,-4.77191
4557.11,861.15,-4.77201
4559.54,861.55,-4.77092
4561.96,861.95,-4.771
4564.38,862.35,-4.77106
4566.81,862.75,-4.77307
4569.23,863.15,-4.77182
4571.65,863.55,-4.77401
4574.076,863.95,-4.77581
4576.5,864.35,-4.77506
4578.92,864.75,-4.77601
4581.35,865.15,-4.776
4583.78,865.55,-4.776
4586.208,865.95,-4.776
4588.63,866.35,-4.77581
4591.06,866.75,-4.773
4593.48,867.15,-4.77305
4595.91,867.55,-4.77199
4598.33,867.95,-4.772
4600.74,868.35,-4.77312
4603.17,868.75,-4.77393
4605.6,869.15,-4.77201
4608.03,869.55,-4.77006
4610.451,869.95,-4.77
4612.866,870.35,-4.77
4615.296,870.75,-4.77062
4617.7,871.15,-4.7726
4619.6,871.45,-4.7741