File: Non-charring/PMMA/Sandia/Sandia_TGA_Ar_50K_2.csv
Time,Temperature,Mass
[s],[K],[mg]
1200.1,306.94,1.00E-03
1270.36,307.34,1.53E-03
1285.39,307.74,4.08E-03
1294.99,308.14,2.15E-03
1302.21,308.54,4.49E-03
1308.35,308.94,2.42E-03
1313.48,309.34,3.03E-03
1318.002,309.74,3.52E-03
1322.04,310.14,4.65E-03
1325.73,310.54,1.92E-03
1329.19,310.94,2.22E-03
1332.29,311.34,1.02E-03
1335.201,311.74,9.81E-04
1338.02,312.14,2.06E-03
1340.64,312.54,1.89E-03
1343.12,312.94,1.89E-03
1345.51,313.34,3.01E-03
1347.76,313.74,1.54E-03
1349.96,314.14,1.20E-03
1352.04,314.54,1.70E-03
1354.04,314.94,2.79E-03
1355.99,315.34,1.75E-03
1357.86,315.74,1.33E-03
1359.681,316.14,2.01E-03
1361.45,316.54,2.71E-04
1363.185,316.94,7.22E-04
1364.86,317.34,1.80E-03
1366.49,317.74,2.03E-03
1368.06,318.14,1.99E-03
1369.59,318.54,-2.13E-04
1371.081,318.94,-9.59E-04
1372.54,319.34,1.01E-03
1373.96,319.74,6.08E-04
1375.37,320.14,1.56E-04
1376.754,320.54,1.15E-03
1378.11,320.94,-3.86E-05
1379.44,321.34,1.34E-03
1380.73,321.74,1.02E-03
1382.01,322.14,-2.18E-04
1383.27,322.54,8.65E-04
1384.5,322.94,1.01E-03
1385.71,323.34,7.55E-05
1386.89,323.74,2.22E-05
1388.07,324.14,1.18E-03
1389.246,324.54,1.16E-03
1390.39,324.94,1.22E-03
1391.51,325.34,1.96E-03
1392.62,325.74,1.06E-03
1393.716,326.14,1.13E-03
1394.79,326.54,1.79E-03
1395.855,326.94,2.79E-03
1396.91,327.34,9.92E-04
1397.95,327.74,1.39E-03
1398.97,328.14,1.48E-03
1399.98,328.54,1.36E-03
1400.99,328.94,2.09E-03
1401.981,329.34,2.51E-03
1402.947,329.74,2.80E-03
1403.92,330.14,1.09E-03
1404.88,330.54,1.91E-03
1405.83,330.94,2.12E-03
1406.77,331.34,1.34E-03
1407.702,331.74,1.99E-03
1408.623,332.14,8.64E-04
1409.53,332.54,1.11E-03
1410.432,332.94,2.23E-03
1411.326,333.34,9.44E-04
1412.21,333.74,1.40E-03
1413.087,334.14,-9.85E-04
1413.95,334.54,7.50E-05
1414.81,334.94,-1.04E-04
1415.661,335.34,7.20E-04
1416.51,335.74,2.08E-05
1417.35,336.14,8.68E-04
1418.175,336.54,-3.13E-05
1419,336.94,-6.66E-04
1419.82,337.34,2.68E-04
1420.63,337.74,-6.02E-04
1421.436,338.14,-2.61E-04
1422.24,338.54,1.92E-03
1423.03,338.94,6.58E-04
1423.82,339.34,7.96E-04
1424.6,339.74,1.26E-03
1425.37,340.14,7.99E-04
1426.14,340.54,1.19E-03
1426.902,340.94,1.49E-05
1427.66,341.34,1.06E-03
1428.42,341.74,1.15E-03
1429.17,342.14,-2.18E-04
1429.92,342.54,-1.06E-03
1430.66,342.94,1.84E-03
1431.39,343.34,-4.24E-05
1432.13,343.74,-8.82E-04
1432.85,344.14,-2.73E-05
1433.58,344.54,3.51E-04
1434.3,344.94,-1.19E-05
1435.02,345.34,-7.73E-04
1435.731,345.74,8.97E-04
1436.44,346.14,-1.97E-03
1437.14,346.54,-7.22E-04
1437.84,346.94,-3.85E-04
1438.539,347.34,-1.26E-03
1439.232,347.74,-1.28E-03
1439.92,348.14,-1.79E-03
1440.61,348.54,-8.06E-04
1441.29,348.94,8.39E-05
1441.97,349.34,-1.50E-03
1442.64,349.74,-7.85E-04
1443.31,350.14,-9.95E-04
1443.98,350.54,-2.83E-04
1444.65,350.94,-1.01E-03
1445.31,351.34,1.55E-05
1445.967,351.74,-1.33E-03
1446.62,352.14,-1.37E-03
1447.28,352.54,-1.05E-03
1447.929,352.94,-7.26E-04
1448.57,353.34,-1.49E-04
1449.21,353.74,2.32E-04
1449.85,354.14,-3.79E-04
1450.488,354.54,9.39E-04
1451.12,354.94,1.18E-04
1451.76,355.34,2.35E-04
1452.38,355.74,-1.16E-03
1453.01,356.14,5.01E-04
1453.63,356.54,-5.01E-04
1454.25,356.94,-2.96E-04
1454.87,357.34,-2.20E-03
1455.49,357.74,4.58E-07
1456.1,358.14,-2.00E-03
1456.71,358.54,-1.03E-03
1457.31,358.94,-1.05E-03
1457.92,359.34,5.28E-05
1458.52,359.74,-1.53E-04
1459.12,360.14,-1.94E-03
1459.72,360.54,-1.06E-03
1460.31,360.94,-1.03E-03
1460.9,361.34,-1.00E-03
1461.49,361.74,-1.21E-05
1462.08,362.14,-1.99E-03
1462.66,362.54,-1.77E-03
1463.24,362.94,-1.88E-03
1463.83,363.34,-2.47E-03
1464.4,363.74,-2.58E-03
1464.98,364.14,-3.26E-03
1465.56,364.54,-1.58E-03
1466.13,364.94,-3.01E-03
1466.7,365.34,-2.99E-03
1467.27,365.74,-2.80E-03
1467.84,366.14,-3.02E-03
1468.401,366.54,-2.39E-03
1468.96,366.94,-2.98E-03
1469.52,367.34,-4.06E-03
1470.08,367.74,-3.98E-03
1470.636,368.14,-1.65E-03
1471.19,368.54,-3.97E-03
1471.74,368.94,-5.18E-03
1472.292,369.34,-2.99E-03
1472.84,369.74,-4.15E-03
1473.39,370.14,-3.93E-03
1473.94,370.54,-4.86E-03
1474.48,370.94,-3.98E-03
1475.02,371.34,-4.18E-03
1475.562,371.74,-5.08E-03
1476.1,372.14,-4.00E-03
1476.633,372.54,-4.70E-03
1477.17,372.94,-4.88E-03
1477.701,373.34,-6.99E-03
1478.23,373.74,-5.04E-03
1478.76,374.14,-4.99E-03
1479.29,374.54,-4.95E-03
1479.82,374.94,-4.79E-03
1480.35,375.34,-4.99E-03
1480.88,375.74,-4.13E-03
1481.4,376.14,-6.20E-03
1481.93,376.54,-5.87E-03
1482.447,376.94,-6.08E-03
1482.97,377.34,-5.71E-03
1483.49,377.74,-5.96E-03
1484,378.14,-5.03E-03
1484.52,378.54,-6.09E-03
1485.03,378.94,-6.01E-03
1485.55,379.34,-6.00E-03
1486.06,379.74,-5.94E-03
1486.572,380.14,-4.46E-03
1487.082,380.54,-5.99E-03
1487.592,380.94,-5.91E-03
1488.099,381.34,-7.00E-03
1488.61,381.74,-5.82E-03
1489.11,382.14,-5.99E-03
1489.62,382.54,-5.86E-03
1490.121,382.94,-5.93E-03
1490.625,383.34,-5.97E-03
1491.13,383.74,-6.23E-03
1491.63,384.14,-6.88E-03
1492.13,384.54,-7.01E-03
1492.63,384.94,-7.22E-03
1493.13,385.34,-4.98E-03
1493.62,385.74,-7.17E-03
1494.12,386.14,-6.98E-03
1494.61,386.54,-8.09E-03
1495.11,386.94,-8.00E-03
1495.6,387.34,-8.70E-03
1496.091,387.74,-6.98E-03
1496.58,388.14,-7.03E-03
1497.069,388.54,-7.88E-03
1497.56,388.94,-8.02E-03
1498.04,389.34,-8.74E-03
1498.53,389.74,-9.06E-03
1499.01,390.14,-6.61E-03
1499.5,390.54,-9.00E-03
1499.99,390.94,-9.00E-03
1500.47,391.34,-9.07E-03
1500.95,391.74,-8.03E-03
1501.44,392.14,-7.99E-03
1501.92,392.54,-8.12E-03
1502.4,392.94,-1.00E-02
1502.87,393.34,-8.99E-03
1503.351,393.74,-1.01E-02
1503.83,394.14,-1.00E-02
1504.3,394.54,-1.00E-02
1504.77,394.94,-9.86E-03
1505.25,395.34,-9.99E-03
1505.72,395.74,-1.01E-02
1506.19,396.14,-1.11E-02
1506.66,396.54,-9.96E-03
1507.13,396.94,-9.97E-03
1507.596,397.34,-1.11E-02
1508.06,397.74,-1.10E-02
1508.53,398.14,-1.11E-02
1509,398.54,-1.15E-02
1509.459,398.94,-1.10E-02
1509.92,399.34,-1.12E-02
1510.39,399.74,-1.29E-02
1510.848,400.14,-1.30E-02
1511.31,400.54,-1.30E-02
1511.77,400.94,-1.27E-02
1512.23,401.34,-1.20E-02
1512.69,401.74,-1.20E-02
1513.15,402.14,-1.24E-02
1513.6,402.54,-1.39E-02
1514.06,402.94,-1.40E-02
1514.51,403.34,-1.40E-02
1514.97,403.74,-1.40E-02
1515.42,404.14,-1.40E-02
1515.88,404.54,-1.40E-02
1516.329,404.94,-1.38E-02
1516.779,405.34,-1.52E-02
1517.23,405.74,-1.50E-02
1517.68,406.14,-1.50E-02
1518.123,406.54,-1.50E-02
1518.57,406.94,-1.53E-02
1519.02,407.34,-1.60E-02
1519.461,407.74,-1.60E-02
1519.91,408.14,-1.60E-02
1520.35,408.54,-1.59E-02
1520.79,408.94,-1.71E-02
1521.23,409.34,-1.70E-02
1521.67,409.74,-1.70E-02
1522.11,410.14,-1.70E-02
1522.554,410.54,-1.81E-02
1522.995,410.94,-1.80E-02
1523.43,411.34,-1.80E-02
1523.87,411.74,-1.80E-02
1524.31,412.14,-1.80E-02
1524.74,412.54,-1.91E-02
1525.18,412.94,-1.90E-02
1525.61,413.34,-1.90E-02
1526.04,413.74,-1.90E-02
1526.48,414.14,-1.90E-02
1526.91,414.54,-1.90E-02
1527.34,414.94,-2.00E-02
1527.77,415.34,-2.00E-02
1528.2,415.74,-2.00E-02
1528.64,416.14,-2.00E-02
1529.07,416.54,-2.00E-02
1529.496,416.94,-2.20E-02
1529.92,417.34,-2.20E-02
1530.351,417.74,-2.20E-02
1530.78,418.14,-2.20E-02
1531.2,418.54,-2.21E-02
1531.63,418.94,-2.33E-02
1532.05,419.34,-2.40E-02
1532.48,419.74,-2.40E-02
1532.9,420.14,-2.40E-02
1533.32,420.54,-2.40E-02
1533.75,420.94,-2.40E-02
1534.17,421.34,-2.40E-02
1534.59,421.74,-2.38E-02
1535.01,422.14,-2.60E-02
1535.43,422.54,-2.82E-02
1535.85,422.94,-2.80E-02
1536.27,423.34,-2.79E-02
1536.69,423.74,-2.90E-02
1537.11,424.14,-2.90E-02
1537.53,424.54,-2.91E-02
1537.94,424.94,-3.00E-02
1538.36,425.34,-3.00E-02
1538.775,425.74,-3.04E-02
1539.19,426.14,-3.10E-02
1539.606,426.54,-3.10E-02
1540.02,426.94,-3.09E-02
1540.43,427.34,-3.21E-02
1540.85,427.74,-3.20E-02
1541.26,428.14,-3.28E-02
1541.67,428.54,-3.30E-02
1542.09,428.94,-3.29E-02
1542.5,429.34,-3.50E-02
1542.91,429.74,-3.70E-02
1543.317,430.14,-3.70E-02
1543.73,430.54,-3.70E-02
1544.14,430.94,-3.73E-02
1544.55,431.34,-3.90E-02
1544.96,431.74,-3.92E-02
1545.36,432.14,-4.00E-02
1545.77,432.54,-4.03E-02
1546.179,432.94,-4.10E-02
1546.59,433.34,-4.14E-02
1546.992,433.74,-4.20E-02
1547.397,434.14,-4.25E-02
1547.8,434.54,-4.29E-02
1548.21,434.94,-4.41E-02
1548.61,435.34,-4.46E-02
1549.02,435.74,-4.50E-02
1549.42,436.14,-4.63E-02
1549.82,436.54,-4.70E-02
1550.23,436.94,-4.77E-02
1550.63,437.34,-4.79E-02
1551.033,437.74,-4.91E-02
1551.44,438.14,-5.04E-02
1551.84,438.54,-5.10E-02
1552.239,438.94,-5.11E-02
1552.64,439.34,-5.25E-02
1553.04,439.74,-5.37E-02
1553.442,440.14,-5.38E-02
1553.841,440.54,-5.62E-02
1554.24,440.94,-5.67E-02
1554.64,441.34,-5.69E-02
1555.04,441.74,-5.79E-02
1555.44,442.14,-6.01E-02
1555.833,442.54,-5.98E-02
1556.229,442.94,-6.21E-02
1556.625,443.34,-6.18E-02
1557.02,443.74,-6.40E-02
1557.42,444.14,-6.62E-02
1557.81,444.54,-6.58E-02
1558.21,444.94,-6.80E-02
1558.6,445.34,-7.01E-02
1559,445.74,-7.09E-02
1559.39,446.14,-7.31E-02
1559.79,446.54,-7.39E-02
1560.18,446.94,-7.61E-02
1560.57,447.34,-7.70E-02
1560.963,447.74,-7.91E-02
1561.35,448.14,-8.00E-02
1561.75,448.54,-8.21E-02
1562.14,448.94,-8.41E-02
1562.53,449.34,-8.61E-02
1562.92,449.74,-8.70E-02
1563.31,450.14,-8.90E-02
1563.7,450.54,-9.10E-02
1564.089,450.94,-9.10E-02
1564.48,451.34,-9.19E-02
1564.87,451.74,-9.58E-02
1565.25,452.14,-9.58E-02
1565.64,452.54,-9.79E-02
1566.03,452.94,-0.10004
1566.42,453.34,-0.10087
1566.8,453.74,-0.10299
1567.19,454.14,-0.10503
1567.57,454.54,-0.10714
1567.96,454.94,-0.10798
1568.34,455.34,-0.11009
1568.73,455.74,-0.11208
1569.11,456.14,-0.11404
1569.49,456.54,-0.11498
1569.87,456.94,-0.11683
1570.257,457.34,-0.11866
1570.64,457.74,-0.12044
1571.02,458.14,-0.12163
1571.4,458.54,-0.12305
1571.78,458.94,-0.12476
1572.16,459.34,-0.12626
1572.543,459.74,-0.12736
1572.92,460.14,-0.12915
1573.3,460.54,-0.13102
1573.68,460.94,-0.13298
1574.06,461.34,-0.13387
1574.442,461.74,-0.13591
1574.82,462.14,-0.13796
1575.198,462.54,-0.14008
1575.57,462.94,-0.1406
1575.951,463.34,-0.14211
1576.33,463.74,-0.14409
1576.7,464.14,-0.14602
1577.08,464.54,-0.14694
1577.454,464.94,-0.14865
1577.83,465.34,-0.15034
1578.2,465.74,-0.15153
1578.579,466.14,-0.15275
1578.95,466.54,-0.15427
1579.33,466.94,-0.15413
1579.7,467.34,-0.156
1580.073,467.74,-0.15798
1580.45,468.14,-0.15885
1580.82,468.54,-0.16095
1581.19,468.94,-0.16311
1581.57,469.34,-0.16397
1581.94,469.74,-0.16613
1582.31,470.14,-0.16701
1582.68,470.54,-0.16894
1583.05,470.94,-0.16878
1583.42,471.34,-0.17027
1583.79,471.74,-0.17146
1584.16,472.14,-0.17259
1584.534,472.54,-0.17424
1584.903,472.94,-0.17601
1585.27,473.34,-0.17694
1585.64,473.74,-0.1771
1586.01,474.14,-0.179
1586.38,474.54,-0.18115
1586.75,474.94,-0.18214
1587.12,475.34,-0.18211
1587.483,475.74,-0.18401
1587.85,476.14,-0.18663
1588.22,476.54,-0.18684
1588.59,476.94,-0.18788
1588.95,477.34,-0.18985
1589.32,477.74,-0.19111
1589.69,478.14,-0.19197
1590.06,478.54,-0.19363
1590.42,478.94,-0.19464
1590.79,479.34,-0.19587
1591.152,479.74,-0.19741
1591.52,480.14,-0.19903
1591.88,480.54,-0.20006
1592.25,480.94,-0.19873
1592.61,481.34,-0.20096
1592.97,481.74,-0.20307
1593.34,482.14,-0.20513
1593.702,482.54,-0.206
1594.06,482.94,-0.20773
1594.43,483.34,-0.20869
1594.79,483.74,-0.20991
1595.16,484.14,-0.21122
1595.52,484.54,-0.21213
1595.88,484.94,-0.21394
1596.24,485.34,-0.21602
1596.606,485.74,-0.21701
1596.97,486.14,-0.2181
1597.33,486.54,-0.21795
1597.689,486.94,-0.21993
1598.05,487.34,-0.22081
1598.41,487.74,-0.22214
1598.77,488.14,-0.22333
1599.13,488.54,-0.22426
1599.495,488.94,-0.22599
1599.86,489.34,-0.22695
1600.22,489.74,-0.22787
1600.575,490.14,-0.23006
1600.93,490.54,-0.23213
1601.29,490.94,-0.23298
1601.65,491.34,-0.23377
1602.01,491.74,-0.234
1602.37,492.14,-0.23435
1602.726,492.54,-0.23518
1603.08,492.94,-0.23702
1603.44,493.34,-0.2368
1603.8,493.74,-0.23909
1604.16,494.14,-0.24005
1604.51,494.54,-0.24103
1604.87,494.94,-0.24191
1605.23,495.34,-0.24333
1605.58,495.74,-0.24445
1605.939,496.14,-0.24406
1606.29,496.54,-0.24499
1606.65,496.94,-0.24586
1607,497.34,-0.24809
1607.36,497.74,-0.24905
1607.71,498.14,-0.25002
1608.07,498.54,-0.25098
1608.426,498.94,-0.25121
1608.78,499.34,-0.25198
1609.137,499.74,-0.25229
1609.49,500.14,-0.25403
1609.84,500.54,-0.25479
1610.2,500.94,-0.25549
1610.55,501.34,-0.25618
1610.9,501.74,-0.25698
1611.26,502.14,-0.25578
1611.61,502.54,-0.25821
1611.96,502.94,-0.25831
1612.32,503.34,-0.25897
1612.671,503.74,-0.25988
1613.02,504.14,-0.25987
1613.37,504.54,-0.26111
1613.73,504.94,-0.26101
1614.08,505.34,-0.26099
1614.43,505.74,-0.26076
1614.78,506.14,-0.26285
1615.13,506.54,-0.26215
1615.482,506.94,-0.26303
1615.833,507.34,-0.2637
1616.184,507.74,-0.26403
1616.53,508.14,-0.26434
1616.88,508.54,-0.26414
1617.234,508.94,-0.26405
1617.58,509.34,-0.26405
1617.93,509.74,-0.26426
1618.28,510.14,-0.26603
1618.63,510.54,-0.2659
1618.98,510.94,-0.2671
1619.33,511.34,-0.26698
1619.67,511.74,-0.2679
1620.02,512.14,-0.26797
1620.37,512.54,-0.26793
1620.72,512.94,-0.26908
1621.07,513.34,-0.26728
1621.41,513.74,-0.26763
1621.76,514.14,-0.26801
1622.11,514.54,-0.26805
1622.46,514.94,-0.27019
1622.802,515.34,-0.26891
1623.15,515.74,-0.26899
1623.49,516.14,-0.269
1623.84,516.54,-0.26906
1624.19,516.94,-0.26993
1624.533,517.34,-0.26988
1624.878,517.74,-0.27001
1625.223,518.14,-0.27001
1625.57,518.54,-0.27004
1625.91,518.94,-0.2701
1626.258,519.34,-0.27218
1626.6,519.74,-0.27094
1626.94,520.14,-0.27118
1627.29,520.54,-0.27201
1627.632,520.94,-0.27204
1627.98,521.34,-0.27244
1628.32,521.74,-0.27194
1628.66,522.14,-0.27193
1629.01,522.54,-0.27311
1629.35,522.94,-0.2731
1629.7,523.34,-0.27199
1630.04,523.74,-0.27414
1630.39,524.14,-0.27402
1630.73,524.54,-0.274
1631.07,524.94,-0.27397
1631.41,525.34,-0.27289
1631.76,525.74,-0.27254
1632.1,526.14,-0.27401
1632.44,526.54,-0.2739
1632.78,526.94,-0.2751
1633.119,527.34,-0.27497
1633.46,527.74,-0.27667
1633.8,528.14,-0.27695
1634.14,528.54,-0.277
1634.484,528.94,-0.277
1634.83,529.34,-0.27705
1635.17,529.74,-0.27758
1635.51,530.14,-0.27893
1635.849,530.54,-0.2769
1636.19,530.94,-0.27704
1636.53,531.34,-0.27724
1636.87,531.74,-0.27903
1637.211,532.14,-0.27824
1637.55,532.54,-0.28022
1637.89,532.94,-0.27999
1638.23,533.34,-0.27998
1638.57,533.74,-0.27983
1638.91,534.14,-0.28202
1639.25,534.54,-0.28081
1639.59,534.94,-0.28212
1639.923,535.34,-0.28209
1640.26,535.74,-0.28303
1640.6,536.14,-0.28291
1640.94,536.54,-0.28409
1641.28,536.94,-0.284
1641.62,537.34,-0.28406
1641.954,537.74,-0.28447
1642.29,538.14,-0.28601
1642.63,538.54,-0.286
1642.97,538.94,-0.28586
1643.3,539.34,-0.28802
1643.64,539.74,-0.28784
1643.98,540.14,-0.28875
1644.31,540.54,-0.28806
1644.65,540.94,-0.2891
1644.987,541.34,-0.28985
1645.32,541.74,-0.29097
1645.66,542.14,-0.29103
1646,542.54,-0.29151
1646.33,542.94,-0.29212
1646.67,543.34,-0.29296
1647.01,543.74,-0.29411
1647.34,544.14,-0.29402
1647.68,544.54,-0.29393
1648.01,544.94,-0.29488
1648.347,545.34,-0.29719
1648.683,545.74,-0.29702
1649.02,546.14,-0.29825
1649.35,546.54,-0.29922
1649.69,546.94,-0.29995
1650.024,547.34,-0.30199
1650.36,547.74,-0.30246
1650.69,548.14,-0.30296
1651.03,548.54,-0.30367
1651.36,548.94,-0.30455
1651.7,549.34,-0.306
1652.03,549.74,-0.30685
1652.37,550.14,-0.30907
1652.7,550.54,-0.31101
1653.04,550.94,-0.31173
1653.369,551.34,-0.31264
1653.7,551.74,-0.31401
1654.038,552.14,-0.31341
1654.37,552.54,-0.31512
1654.71,552.94,-0.31703
1655.04,553.34,-0.31845
1655.37,553.74,-0.31927
1655.71,554.14,-0.31998
1656.04,554.54,-0.32152
1656.37,554.94,-0.32264
1656.71,555.34,-0.32401
1657.04,555.74,-0.32568
1657.37,556.14,-0.32694
1657.7,556.54,-0.32903
1658.04,556.94,-0.32875
1658.37,557.34,-0.33118
1658.7,557.74,-0.33204
1659.04,558.14,-0.33393
1659.37,558.54,-0.33654
1659.702,558.94,-0.33803
1660.03,559.34,-0.34041
1660.37,559.74,-0.34133
1660.7,560.14,-0.34399
1661.031,560.54,-0.34636
1661.36,560.94,-0.34872
1661.694,561.34,-0.349
1662.03,561.74,-0.35161
1662.36,562.14,-0.35402
1662.69,562.54,-0.35687
1663.02,562.94,-0.3592
1663.35,563.34,-0.3614
1663.68,563.74,-0.36488
1664.02,564.14,-0.36668
1664.346,564.54,-0.36726
1664.68,564.94,-0.37092
1665.01,565.34,-0.37256
1665.34,565.74,-0.37538
1665.67,566.14,-0.37686
1666,566.54,-0.38077
1666.33,566.94,-0.38232
1666.66,567.34,-0.38477
1666.99,567.74,-0.38755
1667.32,568.14,-0.38904
1667.65,568.54,-0.38962
1667.98,568.94,-0.39243
1668.31,569.34,-0.39511
1668.64,569.74,-0.39686
1668.97,570.14,-0.39799
1669.305,570.54,-0.40104
1669.63,570.94,-0.40282
1669.96,571.34,-0.4063
1670.29,571.74,-0.40694
1670.62,572.14,-0.40957
1670.95,572.54,-0.41232
1671.28,572.94,-0.41485
1671.612,573.34,-0.41657
1671.94,573.74,-0.41839
1672.27,574.14,-0.42082
1672.602,574.54,-0.42349
1672.93,574.94,-0.42612
1673.26,575.34,-0.42666
1673.59,575.74,-0.42945
1673.919,576.14,-0.43213
1674.25,576.54,-0.43452
1674.58,576.94,-0.43663
1674.9,577.34,-0.44003
1675.23,577.74,-0.44232
1675.56,578.14,-0.44393
1675.89,578.54,-0.44594
1676.22,578.94,-0.44808
1676.55,579.34,-0.45128
1676.88,579.74,-0.45375
1677.21,580.14,-0.45652
1677.534,580.54,-0.45935
1677.861,580.94,-0.4627
1678.19,581.34,-0.46487
1678.52,581.74,-0.46714
1678.84,582.14,-0.46893
1679.17,582.54,-0.47144
1679.499,582.94,-0.47399
1679.83,583.34,-0.47749
1680.16,583.74,-0.47835
1680.48,584.14,-0.48184
1680.81,584.54,-0.48504
1681.14,584.94,-0.48796
1681.467,585.34,-0.49154
1681.8,585.74,-0.49085
1682.12,586.14,-0.49618
1682.45,586.54,-0.49736
1682.78,586.94,-0.50073
1683.105,587.34,-0.50404
1683.43,587.74,-0.50625
1683.76,588.14,-0.50957
1684.09,588.54,-0.51291
1684.41,588.94,-0.5156
1684.74,589.34,-0.51926
1685.07,589.74,-0.52071
1685.4,590.14,-0.52507
1685.72,590.54,-0.52823
1686.051,590.94,-0.5316
1686.38,591.34,-0.53368
1686.71,591.74,-0.53706
1687.03,592.14,-0.54104
1687.36,592.54,-0.54456
1687.69,592.94,-0.54791
1688.01,593.34,-0.55008
1688.34,593.74,-0.55357
1688.67,594.14,-0.55761
1688.991,594.54,-0.562
1689.32,594.94,-0.56511
1689.642,595.34,-0.56738
1689.969,595.74,-0.57093
1690.3,596.14,-0.57594
1690.62,596.54,-0.57913
1690.95,596.94,-0.58381
1691.28,597.34,-0.58774
1691.6,597.74,-0.59268
1691.93,598.14,-0.5964
1692.26,598.54,-0.60073
1692.58,598.94,-0.60304
1692.91,599.34,-0.60811
1693.24,599.74,-0.61198
1693.56,600.14,-0.61692
1693.89,600.54,-0.62187
1694.22,600.94,-0.62565
1694.54,601.34,-0.63062
1694.87,601.74,-0.63553
1695.19,602.14,-0.64042
1695.52,602.54,-0.64531
1695.846,602.94,-0.65018
1696.17,603.34,-0.65499
1696.497,603.74,-0.66095
1696.82,604.14,-0.66646
1697.15,604.54,-0.67173
1697.475,604.94,-0.67657
1697.802,605.34,-0.68256
1698.129,605.74,-0.68865
1698.46,606.14,-0.69358
1698.78,606.54,-0.69859
1699.11,606.94,-0.70516
1699.434,607.34,-0.71085
1699.76,607.74,-0.71813
1700.09,608.14,-0.72275
1700.41,608.54,-0.72913
1700.739,608.94,-0.7367
1701.07,609.34,-0.74235
1701.39,609.74,-0.74773
1701.72,610.14,-0.75436
1702.05,610.54,-0.76157
1702.37,610.94,-0.76953
1702.7,611.34,-0.77596
1703.02,611.74,-0.78419
1703.35,612.14,-0.79089
1703.68,612.54,-0.7993
1704.003,612.94,-0.80722
1704.33,613.34,-0.81254
1704.65,613.74,-0.82146
1704.98,614.14,-0.82518
1705.31,614.54,-0.838
1705.63,614.94,-0.84499
1705.96,615.34,-0.84875
1706.29,615.74,-0.85857
1706.61,616.14,-0.86789
1706.937,616.54,-0.87612
1707.26,616.94,-0.88424
1707.59,617.34,-0.8921
1707.915,617.74,-0.90252
1708.24,618.14,-0.91142
1708.57,618.54,-0.92063
1708.89,618.94,-0.93076
1709.22,619.34,-0.93874
1709.55,619.74,-0.94953
1709.87,620.14,-0.95829
1710.2,620.54,-0.96843
1710.53,620.94,-0.97991
1710.85,621.34,-0.98782
1711.18,621.74,-0.9996
1711.51,622.14,-1.01027
1711.836,622.54,-1.02031
1712.16,622.94,-1.03194
1712.49,623.34,-1.04163
1712.82,623.74,-1.05413
1713.14,624.14,-1.06529
1713.47,624.54,-1.07663
1713.8,624.94,-1.08861
1714.12,625.34,-1.0979
1714.45,625.74,-1.11212
1714.78,626.14,-1.12319
1715.11,626.54,-1.13623
1715.433,626.94,-1.14943
1715.76,627.34,-1.16161
1716.09,627.74,-1.17554
1716.42,628.14,-1.1871
1716.74,628.54,-1.20202
1717.07,628.94,-1.20175
1717.398,629.34,-1.3966
1717.725,629.74,-1.39569
1718.052,630.14,-1.40776
1718.38,630.54,-1.42369
1718.71,630.94,-1.4383
1719.04,631.34,-1.45568
1719.363,631.74,-1.47395
1719.69,632.14,-1.48859
1720.02,632.54,-1.50436
1720.347,632.94,-1.51871
1720.68,633.34,-1.53725
1721,633.74,-1.55389
1721.33,634.14,-1.56546
1721.66,634.54,-1.58576
1721.99,634.94,-1.59979
1722.31,635.34,-1.61986
1722.64,635.74,-1.63843
1722.97,636.14,-1.65328
1723.3,636.54,-1.67589
1723.63,636.94,-1.68825
1723.96,637.34,-1.70762
1724.28,637.74,-1.72424
1724.61,638.14,-1.746
1724.943,638.54,-1.76568
1725.27,638.94,-1.77649
1725.6,639.34,-1.79869
1725.93,639.74,-1.81969
1726.26,640.14,-1.83751
1726.59,640.54,-1.85647
1726.92,640.94,-1.87518
1727.25,641.34,-1.89554
1727.58,641.74,-1.91847
1727.91,642.14,-1.93537
1728.24,642.54,-1.95246
1728.57,642.94,-1.97394
1728.9,643.34,-1.99788
1729.23,643.74,-2.01491
1729.56,644.14,-2.02008
1729.89,644.54,-2.04533
1730.22,644.94,-2.06567
1730.55,645.34,-2.08679
1730.88,645.74,-2.1099
1731.21,646.14,-2.13077
1731.54,646.54,-2.15273
1731.873,646.94,-2.16959
1732.203,647.34,-2.19226
1732.53,647.74,-2.21662
1732.86,648.14,-2.23909
1733.196,648.54,-2.25839
1733.53,648.94,-2.28302
1733.86,649.34,-2.30545
1734.19,649.74,-2.32789
1734.522,650.14,-2.35055
1734.85,650.54,-2.37505
1735.19,650.94,-2.39615
1735.518,651.34,-2.42131
1735.85,651.74,-2.44317
1736.18,652.14,-2.46406
1736.514,652.54,-2.49317
1736.85,652.94,-2.51585
1737.18,653.34,-2.538
1737.51,653.74,-2.56091
1737.85,654.14,-2.587
1738.18,654.54,-2.60924
1738.51,654.94,-2.63181
1738.84,655.34,-2.65851
1739.18,655.74,-2.68059
1739.511,656.14,-2.70088
1739.844,656.54,-2.72494
1740.18,656.94,-2.74599
1740.51,657.34,-2.76961
1740.84,657.74,-2.79108
1741.18,658.14,-2.81512
1741.51,658.54,-2.83652
1741.84,658.94,-2.8595
1742.17,659.34,-2.88453
1742.51,659.74,-2.90337
1742.84,660.14,-2.92629
1743.17,660.54,-2.94962
1743.51,660.94,-2.9696
1743.84,661.34,-2.9932
1744.179,661.74,-3.01548
1744.51,662.14,-3.03784
1744.848,662.54,-3.05963
1745.18,662.94,-3.08144
1745.52,663.34,-3.10327
1745.85,663.74,-3.12819
1746.19,664.14,-3.15336
1746.525,664.54,-3.17149
1746.86,664.94,-3.19569
1747.2,665.34,-3.22172
1747.53,665.74,-3.24768
1747.87,666.14,-3.27083
1748.202,666.54,-3.29697
1748.54,666.94,-3.31921
1748.87,667.34,-3.34106
1749.21,667.74,-3.36352
1749.55,668.14,-3.38757
1749.88,668.54,-3.41276
1750.22,668.94,-3.43689
1750.56,669.34,-3.45974
1750.896,669.74,-3.48467
1751.23,670.14,-3.50694
1751.57,670.54,-3.53036
1751.907,670.94,-3.55454
1752.24,671.34,-3.58014
1752.58,671.74,-3.60018
1752.92,672.14,-3.62009
1753.254,672.54,-3.64347
1753.59,672.94,-3.65337
1753.929,673.34,-3.67747
1754.27,673.74,-3.69568
1754.6,674.14,-3.71986
1754.94,674.54,-3.74295
1755.28,674.94,-3.76588
1755.62,675.34,-3.78688
1755.96,675.74,-3.80657
1756.3,676.14,-3.82878
1756.64,676.54,-3.84675
1756.97,676.94,-3.86574
1757.31,677.34,-3.88677
1757.65,677.74,-3.9081
1757.99,678.14,-3.92762
1758.33,678.54,-3.94572
1758.672,678.94,-3.96356
1759.01,679.34,-3.98199
1759.35,679.74,-4.00328
1759.69,680.14,-4.02256
1760.03,680.54,-4.03873
1760.37,680.94,-4.05817
1760.71,681.34,-4.07555
1761.05,681.74,-4.09299
1761.39,682.14,-4.11199
1761.73,682.54,-4.12683
1762.08,682.94,-4.14776
1762.42,683.34,-4.1602
1762.76,683.74,-4.17985
1763.1,684.14,-4.19894
1763.44,684.54,-4.21777
1763.78,684.94,-4.23226
1764.12,685.34,-4.24385
1764.47,685.74,-4.26518
1764.81,686.14,-4.28082
1765.15,686.54,-4.29645
1765.5,686.94,-4.30986
1765.839,687.34,-4.32498
1766.18,687.74,-4.33842
1766.52,688.14,-4.35101
1766.87,688.54,-4.36465
1767.21,688.94,-4.37736
1767.552,689.34,-4.38889
1767.894,689.74,-4.39982
1768.24,690.14,-4.41063
1768.58,690.54,-4.42194
1768.92,690.94,-4.43262
1769.26,691.34,-4.44357
1769.61,691.74,-4.45367
1769.95,692.14,-4.46382
1770.29,692.54,-4.47386
1770.64,692.94,-4.48328
1770.98,693.34,-4.49376
1771.33,693.74,-4.50258
1771.67,694.14,-4.51195
1772.01,694.54,-4.51806
1772.36,694.94,-4.52453
1772.7,695.34,-4.535
1773.04,695.74,-4.54332
1773.39,696.14,-4.55279
1773.732,696.54,-4.55952
1774.077,696.94,-4.56267
1774.422,697.34,-4.57166
1774.767,697.74,-4.57831
1775.11,698.14,-4.58631
1775.46,698.54,-4.59343
1775.799,698.94,-4.59915
1776.14,699.34,-4.60218
1776.49,699.74,-4.60956
1776.834,700.14,-4.61556
1777.18,700.54,-4.6235
1777.524,700.94,-4.62239
1777.87,701.34,-4.62762
1778.22,701.74,-4.63353
1778.56,702.14,-4.64214
1778.91,702.54,-4.643
1779.255,702.94,-4.64286
1779.6,703.34,-4.64605
1779.95,703.74,-4.64948
1780.29,704.14,-4.65296
1780.64,704.54,-4.6546
1780.99,704.94,-4.65757
1781.34,705.34,-4.65935
1781.68,705.74,-4.66189
1782.03,706.14,-4.66462
1782.38,706.54,-4.66744
1782.73,706.94,-4.67027
1783.07,707.34,-4.67002
1783.42,707.74,-4.6735
1783.77,708.14,-4.67448
1784.118,708.54,-4.67814
1784.47,708.94,-4.67898
1784.814,709.34,-4.68106
1785.16,709.74,-4.68434
1785.51,710.14,-4.68711
1785.86,710.54,-4.68981
1786.206,710.94,-4.69132
1786.554,711.34,-4.69541
1786.902,711.74,-4.69802
1787.25,712.14,-4.70044
1787.6,712.54,-4.7036
1787.95,712.94,-4.7055
1788.3,713.34,-4.70801
1788.65,713.74,-4.70982
1789,714.14,-4.71354
1789.35,714.54,-4.7156
1789.7,714.94,-4.717
1790.05,715.34,-4.71874
1790.4,715.74,-4.72102
1790.75,716.14,-4.7233
1791.102,716.54,-4.72401
1791.45,716.94,-4.72769
1791.8,717.34,-4.72785
1792.15,717.74,-4.72903
1792.506,718.14,-4.73001
1792.857,718.54,-4.73168
1793.21,718.94,-4.73309
1793.56,719.34,-4.73425
1793.91,719.74,-4.73509
1794.27,720.14,-4.73698
1794.62,720.54,-4.73789
1794.97,720.94,-4.74029
1795.32,721.34,-4.73892
1795.68,721.74,-4.73995
1796.03,722.14,-4.74135
1796.38,722.54,-4.74236
1796.73,722.94,-4.74313
1797.087,723.34,-4.74394
1797.44,723.74,-4.74613
1797.79,724.14,-4.74601
1798.15,724.54,-4.74595
1798.5,724.94,-4.74701
1798.857,725.34,-4.74786
1799.21,725.74,-4.74914
1799.57,726.14,-4.75025
1799.922,726.54,-4.75098
1800.28,726.94,-4.75099
1800.63,727.34,-4.75079
1800.99,727.74,-4.75322
1801.34,728.14,-4.75308
1801.7,728.54,-4.752
1802.055,728.94,-4.75416
1802.41,729.34,-4.75512
1802.77,729.74,-4.75563
1803.12,730.14,-4.75503
1803.48,730.54,-4.7549
1803.84,730.94,-4.75713
1804.2,731.34,-4.75702
1804.55,731.74,-4.75702
1804.91,732.14,-4.75704
1805.268,732.54,-4.75803
1805.63,732.94,-4.7579
1805.98,733.34,-4.75911
1806.342,733.74,-4.75901
1806.7,734.14,-4.759
1807.06,734.54,-4.75902
1807.42,734.94,-4.7596
1807.77,735.34,-4.75996
1808.133,735.74,-4.75995
1808.493,736.14,-4.76102
1808.853,736.54,-4.75889
1809.21,736.94,-4.75901
1809.573,737.34,-4.75934
1809.93,737.74,-4.75998
1810.29,738.14,-4.76001
1810.65,738.54,-4.7608
1811.01,738.94,-4.76099
1811.37,739.34,-4.76118
1811.73,739.74,-4.75898
1812.1,740.14,-4.76
1812.459,740.54,-4.76001
1812.82,740.94,-4.76003
1813.18,741.34,-4.76039
1813.54,741.74,-4.76098
1813.91,742.14,-4.761
1814.268,742.54,-4.76096
1814.63,742.94,-4.75971
1814.99,743.34,-4.75997
1815.36,743.74,-4.76095
1815.72,744.14,-4.761
1816.08,744.54,-4.76099
1816.45,744.94,-4.76023
1816.81,745.34,-4.76003
1817.17,745.74,-4.76001
1817.538,746.14,-4.76002
1817.9,746.54,-4.76001
1818.27,746.94,-4.76215
1818.63,747.34,-4.76094
1819,747.74,-4.76099
1819.36,748.14,-4.761
1819.73,748.54,-4.761
1820.09,748.94,-4.76099
1820.46,749.34,-4.76017
1820.826,749.74,-4.76003
1821.19,750.14,-4.76006
1821.56,750.54,-4.7606
1821.927,750.94,-4.7609
1822.29,751.34,-4.761
1822.66,751.74,-4.76099
1823.03,752.14,-4.76089
1823.39,752.54,-4.76205
1823.76,752.94,-4.76147
1824.13,753.34,-4.76004
1824.49,753.74,-4.76
1824.86,754.14,-4.75992
1825.23,754.54,-4.76108
1825.6,754.94,-4.76101
1825.97,755.34,-4.761
1826.34,755.74,-4.76096
1826.71,756.14,-4.76202
1827.08,756.54,-4.76199
1827.45,756.94,-4.76195
1827.819,757.34,-4.76077
1828.188,757.74,-4.75996
1828.56,758.14,-4.76111
1828.93,758.54,-4.76101
1829.3,758.94,-4.761
1829.67,759.34,-4.76093
1830.04,759.74,-4.76206
1830.41,760.14,-4.76201
1830.786,760.54,-4.76199
1831.16,760.94,-4.7619
1831.53,761.34,-4.76284
1831.9,761.74,-4.76101
1832.28,762.14,-4.761
1832.649,762.54,-4.76102
1833.02,762.94,-4.7616
1833.4,763.34,-4.7615
1833.77,763.74,-4.76103
1834.143,764.14,-4.76103
1834.52,764.54,-4.76112
1834.89,764.94,-4.76302
1835.27,765.34,-4.76308
1835.64,765.74,-4.76194
1836.015,766.14,-4.76199
1836.39,766.54,-4.762
1836.77,766.94,-4.76201
1837.14,767.34,-4.76207
1837.518,767.74,-4.76108
1837.89,768.14,-4.76301
1838.27,768.54,-4.763
1838.646,768.94,-4.763
1839.02,769.34,-4.76297
1839.4,769.74,-4.76251
1839.774,770.14,-4.76203
1840.152,770.54,-4.762
1840.53,770.94,-4.762
1840.908,771.34,-4.76201
1841.29,771.74,-4.76097
1841.67,772.14,-4.76308
1842.04,772.54,-4.76301
1842.42,772.94,-4.76301
1842.8,773.34,-4.7631
1843.182,773.74,-4.76189
1843.56,774.14,-4.76199
1843.94,774.54,-4.76197
1844.32,774.94,-4.7618
1844.7,775.34,-4.76201
1845.08,775.74,-4.76199
1845.46,776.14,-4.762
1845.84,776.54,-4.76199
1846.22,776.94,-4.76189
1846.605,777.34,-4.7631
1846.99,777.74,-4.76301
1847.367,778.14,-4.763
1847.75,778.54,-4.76301
1848.13,778.94,-4.76307
1848.513,779.34,-4.76097
1848.897,779.74,-4.762
1849.28,780.14,-4.762
1849.66,780.54,-4.76202
1850.05,780.94,-4.76277
1850.43,781.34,-4.76298
1850.814,781.74,-4.763
1851.198,782.14,-4.76304
1851.582,782.54,-4.76357
1851.966,782.94,-4.76176
1852.35,783.34,-4.76198
1852.74,783.74,-4.762
1853.121,784.14,-4.76201
1853.51,784.54,-4.76203
1853.89,784.94,-4.76204
1854.28,785.34,-4.76201
1854.66,785.74,-4.762
1855.05,786.14,-4.762
1855.44,786.54,-4.76203
1855.82,786.94,-4.76264
1856.21,787.34,-4.76298
1856.6,787.74,-4.763
1856.99,788.14,-4.763
1857.37,788.54,-4.76298
1857.759,788.94,-4.76273
1858.15,789.34,-4.76203
1858.53,789.74,-4.762
1858.923,790.14,-4.76199
1859.31,790.54,-4.76197
1859.7,790.94,-4.761
1860.09,791.34,-4.76302
1860.48,791.74,-4.763
1860.87,792.14,-4.76296
1861.26,792.54,-4.76134
1861.65,792.94,-4.76103
1862.04,793.34,-4.761
1862.43,793.74,-4.761
1862.82,794.14,-4.761
1863.21,794.54,-4.76106
1863.6,794.94,-4.76201
1863.99,795.34,-4.76294
1864.38,795.74,-4.763
1864.78,796.14,-4.76308
1865.169,796.54,-4.76189
1865.56,796.94,-4.76199
1865.95,797.34,-4.762
1866.35,797.74,-4.76201
1866.74,798.14,-4.76217
1867.13,798.54,-4.76298
1867.53,798.94,-4.763
1867.92,799.34,-4.763
1868.32,799.74,-4.76303
1868.712,800.14,-4.76092
1869.11,800.54,-4.76202
1869.501,800.94,-4.762
1869.9,801.34,-4.762
1870.29,801.74,-4.762
1870.69,802.14,-4.762
1871.08,802.54,-4.76195
1871.48,802.94,-4.76302
1871.874,803.34,-4.763
1872.27,803.74,-4.76301
1872.666,804.14,-4.76318
1873.062,804.54,-4.76177
1873.46,804.94,-4.76198
1873.86,805.34,-4.762
1874.25,805.74,-4.76197
1874.65,806.14,-4.76121
1875.048,806.54,-4.76092
1875.45,806.94,-4.76206
1875.85,807.34,-4.762
1876.25,807.74,-4.762
1876.65,808.14,-4.76198
1877.04,808.54,-4.7613
1877.44,808.94,-4.76252
1877.84,809.34,-4.76297
1878.24,809.74,-4.763
1878.642,810.14,-4.76301
1879.04,810.54,-4.7631
1879.44,810.94,-4.76194
1879.845,811.34,-4.762
1880.25,811.74,-4.762
1880.65,812.14,-4.76201
1881.048,812.54,-4.76215
1881.45,812.94,-4.76251
1881.85,813.34,-4.76297
1882.25,813.74,-4.763
1882.66,814.14,-4.76298
1883.06,814.54,-4.76218
1883.46,814.94,-4.76201
1883.9,815.34,-4.762