File: Non-charring/PMMA/Sandia/SANDIA_TGA_Ar_50K_1.csv
Time,Temperature,Mass
[s],[K],[mg]
1200.1,306.872,-2.00E-03
1270.032,307.272,-2.97E-03
1284.93,307.672,-5.02E-03
1294.674,308.072,-6.11E-03
1302.01,308.472,-8.13E-03
1308.08,308.872,-8.01E-03
1313.26,309.272,-9.12E-03
1317.88,309.672,-1.10E-02
1321.96,310.072,-1.03E-02
1325.694,310.472,-1.20E-02
1329.132,310.872,-1.11E-02
1332.303,311.272,-1.30E-02
1335.31,311.672,-1.50E-02
1338.11,312.072,-1.49E-02
1340.74,312.472,-1.42E-02
1343.27,312.872,-1.57E-02
1345.683,313.272,-1.59E-02
1347.96,313.672,-1.63E-02
1350.17,314.072,-1.54E-02
1352.27,314.472,-1.69E-02
1354.3,314.872,-1.70E-02
1356.27,315.272,-1.70E-02
1358.18,315.672,-1.61E-02
1360.01,316.072,-1.81E-02
1361.81,316.472,-1.88E-02
1363.53,316.872,-1.88E-02
1365.2,317.272,-1.82E-02
1366.84,317.672,-1.76E-02
1368.43,318.072,-1.76E-02
1370,318.472,-1.84E-02
1371.52,318.872,-1.89E-02
1373.01,319.272,-1.89E-02
1374.49,319.672,-1.99E-02
1375.91,320.072,-1.80E-02
1377.303,320.472,-2.10E-02
1378.67,320.872,-1.90E-02
1380.018,321.272,-2.12E-02
1381.33,321.672,-2.21E-02
1382.62,322.072,-2.13E-02
1383.89,322.472,-2.00E-02
1385.15,322.872,-2.03E-02
1386.38,323.272,-2.09E-02
1387.59,323.672,-2.14E-02
1388.775,324.072,-2.17E-02
1389.95,324.472,-2.15E-02
1391.11,324.872,-2.11E-02
1392.26,325.272,-2.20E-02
1393.38,325.672,-2.35E-02
1394.48,326.072,-2.40E-02
1395.58,326.472,-2.32E-02
1396.67,326.872,-2.39E-02
1397.74,327.272,-2.21E-02
1398.79,327.672,-2.21E-02
1399.83,328.072,-2.13E-02
1400.86,328.472,-2.10E-02
1401.879,328.872,-2.21E-02
1402.88,329.272,-2.10E-02
1403.87,329.672,-2.30E-02
1404.85,330.072,-2.21E-02
1405.83,330.472,-2.31E-02
1406.8,330.872,-2.29E-02
1407.75,331.272,-2.12E-02
1408.69,331.672,-2.30E-02
1409.62,332.072,-2.27E-02
1410.549,332.472,-2.23E-02
1411.461,332.872,-2.47E-02
1412.37,333.272,-2.40E-02
1413.26,333.672,-2.40E-02
1414.15,334.072,-2.40E-02
1415.04,334.472,-2.43E-02
1415.91,334.872,-2.40E-02
1416.78,335.272,-2.38E-02
1417.63,335.672,-2.38E-02
1418.49,336.072,-2.39E-02
1419.33,336.472,-2.51E-02
1420.17,336.872,-2.48E-02
1421,337.272,-2.43E-02
1421.82,337.672,-2.47E-02
1422.645,338.072,-2.51E-02
1423.46,338.472,-2.51E-02
1424.271,338.872,-2.41E-02
1425.07,339.272,-2.72E-02
1425.861,339.672,-2.56E-02
1426.647,340.072,-2.62E-02
1427.427,340.472,-2.62E-02
1428.21,340.872,-2.59E-02
1428.98,341.272,-2.61E-02
1429.75,341.672,-2.53E-02
1430.52,342.072,-2.50E-02
1431.27,342.472,-2.60E-02
1432.03,342.872,-2.60E-02
1432.78,343.272,-2.59E-02
1433.52,343.672,-2.59E-02
1434.27,344.072,-2.58E-02
1435.008,344.472,-2.72E-02
1435.74,344.872,-2.63E-02
1436.47,345.272,-2.68E-02
1437.2,345.672,-2.70E-02
1437.92,346.072,-2.71E-02
1438.63,346.472,-2.74E-02
1439.34,346.872,-2.68E-02
1440.05,347.272,-2.78E-02
1440.76,347.672,-2.74E-02
1441.45,348.072,-2.87E-02
1442.15,348.472,-2.92E-02
1442.84,348.872,-2.93E-02
1443.53,349.272,-2.89E-02
1444.22,349.672,-2.85E-02
1444.9,350.072,-2.90E-02
1445.58,350.472,-2.66E-02
1446.258,350.872,-2.88E-02
1446.93,351.272,-2.83E-02
1447.6,351.672,-2.92E-02
1448.27,352.072,-2.88E-02
1448.94,352.472,-2.98E-02
1449.59,352.872,-2.97E-02
1450.25,353.272,-2.82E-02
1450.9,353.672,-2.80E-02
1451.56,354.072,-2.91E-02
1452.21,354.472,-3.01E-02
1452.85,354.872,-2.82E-02
1453.5,355.272,-2.90E-02
1454.139,355.672,-2.98E-02
1454.775,356.072,-3.03E-02
1455.41,356.472,-2.91E-02
1456.041,356.872,-2.96E-02
1456.668,357.272,-2.98E-02
1457.29,357.672,-2.90E-02
1457.92,358.072,-3.00E-02
1458.54,358.472,-2.81E-02
1459.16,358.872,-3.00E-02
1459.77,359.272,-3.04E-02
1460.39,359.672,-3.04E-02
1461,360.072,-3.03E-02
1461.606,360.472,-2.99E-02
1462.21,360.872,-3.10E-02
1462.809,361.272,-3.23E-02
1463.41,361.672,-3.09E-02
1464.003,362.072,-3.08E-02
1464.6,362.472,-3.09E-02
1465.194,362.872,-3.10E-02
1465.79,363.272,-3.32E-02
1466.37,363.672,-3.23E-02
1466.96,364.072,-3.08E-02
1467.54,364.472,-3.21E-02
1468.13,364.872,-3.28E-02
1468.71,365.272,-3.20E-02
1469.283,365.672,-3.19E-02
1469.86,366.072,-3.23E-02
1470.43,366.472,-3.20E-02
1471,366.872,-3.41E-02
1471.57,367.272,-3.21E-02
1472.13,367.672,-3.29E-02
1472.697,368.072,-3.30E-02
1473.26,368.472,-3.08E-02
1473.83,368.872,-3.30E-02
1474.386,369.272,-3.29E-02
1474.95,369.672,-3.12E-02
1475.5,370.072,-3.30E-02
1476.06,370.472,-3.30E-02
1476.61,370.872,-3.36E-02
1477.16,371.272,-3.29E-02
1477.704,371.672,-3.50E-02
1478.25,372.072,-3.40E-02
1478.8,372.472,-3.35E-02
1479.34,372.872,-3.33E-02
1479.89,373.272,-3.31E-02
1480.43,373.672,-3.30E-02
1480.97,374.072,-3.28E-02
1481.51,374.472,-3.50E-02
1482.05,374.872,-3.51E-02
1482.58,375.272,-3.40E-02
1483.11,375.672,-3.29E-02
1483.65,376.072,-3.40E-02
1484.18,376.472,-3.27E-02
1484.71,376.872,-3.50E-02
1485.24,377.272,-3.43E-02
1485.76,377.672,-3.40E-02
1486.29,378.072,-3.41E-02
1486.81,378.472,-3.42E-02
1487.33,378.872,-3.40E-02
1487.85,379.272,-3.48E-02
1488.38,379.672,-3.52E-02
1488.894,380.072,-3.40E-02
1489.41,380.472,-3.40E-02
1489.929,380.872,-3.51E-02
1490.45,381.272,-3.50E-02
1490.961,381.672,-3.48E-02
1491.477,382.072,-3.52E-02
1491.99,382.472,-3.50E-02
1492.5,382.872,-3.50E-02
1493.02,383.272,-3.41E-02
1493.526,383.672,-3.62E-02
1494.033,384.072,-3.50E-02
1494.54,384.472,-3.61E-02
1495.05,384.872,-3.62E-02
1495.55,385.272,-3.43E-02
1496.05,385.672,-3.50E-02
1496.56,386.072,-3.50E-02
1497.06,386.472,-3.58E-02
1497.56,386.872,-3.62E-02
1498.06,387.272,-3.47E-02
1498.557,387.672,-3.50E-02
1499.06,388.072,-3.48E-02
1499.55,388.472,-3.69E-02
1500.05,388.872,-3.70E-02
1500.54,389.272,-3.70E-02
1501.04,389.672,-3.56E-02
1501.53,390.072,-3.50E-02
1502.02,390.472,-3.62E-02
1502.51,390.872,-3.70E-02
1502.994,391.272,-3.58E-02
1503.48,391.672,-3.70E-02
1503.97,392.072,-3.71E-02
1504.46,392.472,-3.68E-02
1504.944,392.872,-3.70E-02
1505.43,393.272,-3.70E-02
1505.91,393.672,-3.81E-02
1506.39,394.072,-3.69E-02
1506.87,394.472,-3.70E-02
1507.36,394.872,-3.72E-02
1507.83,395.272,-3.80E-02
1508.31,395.672,-3.79E-02
1508.79,396.072,-3.72E-02
1509.27,396.472,-3.70E-02
1509.74,396.872,-3.69E-02
1510.22,397.272,-3.92E-02
1510.69,397.672,-3.90E-02
1511.16,398.072,-3.90E-02
1511.634,398.472,-3.90E-02
1512.1,398.872,-3.90E-02
1512.573,399.272,-3.90E-02
1513.041,399.672,-3.88E-02
1513.51,400.072,-4.09E-02
1513.97,400.472,-3.91E-02
1514.44,400.872,-3.90E-02
1514.9,401.272,-3.90E-02
1515.36,401.672,-3.90E-02
1515.83,402.072,-3.90E-02
1516.287,402.472,-3.90E-02
1516.75,402.872,-4.12E-02
1517.21,403.272,-4.10E-02
1517.66,403.672,-4.10E-02
1518.12,404.072,-4.10E-02
1518.58,404.472,-4.14E-02
1519.03,404.872,-4.20E-02
1519.49,405.272,-4.20E-02
1519.95,405.672,-4.20E-02
1520.4,406.072,-4.19E-02
1520.85,406.472,-4.31E-02
1521.3,406.872,-4.30E-02
1521.75,407.272,-4.30E-02
1522.2,407.672,-4.29E-02
1522.65,408.072,-4.41E-02
1523.09,408.472,-4.40E-02
1523.54,408.872,-4.40E-02
1523.99,409.272,-4.40E-02
1524.44,409.672,-4.39E-02
1524.88,410.072,-4.50E-02
1525.32,410.472,-4.50E-02
1525.767,410.872,-4.50E-02
1526.21,411.272,-4.50E-02
1526.65,411.672,-4.50E-02
1527.09,412.072,-4.60E-02
1527.534,412.472,-4.60E-02
1527.972,412.872,-4.60E-02
1528.41,413.272,-4.60E-02
1528.85,413.672,-4.60E-02
1529.29,414.072,-4.59E-02
1529.72,414.472,-4.80E-02
1530.159,414.872,-4.80E-02
1530.59,415.272,-4.80E-02
1531.029,415.672,-4.80E-02
1531.46,416.072,-4.80E-02
1531.89,416.472,-4.80E-02
1532.325,416.872,-4.80E-02
1532.76,417.272,-4.80E-02
1533.19,417.672,-4.80E-02
1533.62,418.072,-4.80E-02
1534.05,418.472,-4.88E-02
1534.47,418.872,-4.90E-02
1534.9,419.272,-5.10E-02
1535.33,419.672,-5.10E-02
1535.76,420.072,-5.09E-02
1536.18,420.472,-5.21E-02
1536.61,420.872,-5.20E-02
1537.035,421.272,-5.20E-02
1537.461,421.672,-5.20E-02
1537.884,422.072,-5.19E-02
1538.31,422.472,-5.40E-02
1538.73,422.872,-5.40E-02
1539.15,423.272,-5.40E-02
1539.57,423.672,-5.40E-02
1539.99,424.072,-5.40E-02
1540.413,424.472,-5.38E-02
1540.83,424.872,-5.61E-02
1541.25,425.272,-5.60E-02
1541.67,425.672,-5.60E-02
1542.087,426.072,-5.70E-02
1542.51,426.472,-5.70E-02
1542.921,426.872,-5.90E-02
1543.34,427.272,-6.01E-02
1543.75,427.672,-5.99E-02
1544.17,428.072,-6.11E-02
1544.58,428.472,-6.10E-02
1545,428.872,-6.15E-02
1545.41,429.272,-6.20E-02
1545.822,429.672,-6.18E-02
1546.23,430.072,-6.41E-02
1546.65,430.472,-6.40E-02
1547.06,430.872,-6.40E-02
1547.47,431.272,-6.40E-02
1547.88,431.672,-6.58E-02
1548.288,432.072,-6.60E-02
1548.7,432.472,-6.70E-02
1549.107,432.872,-6.70E-02
1549.52,433.272,-6.91E-02
1549.92,433.672,-6.90E-02
1550.33,434.072,-6.90E-02
1550.74,434.472,-6.93E-02
1551.15,434.872,-7.09E-02
1551.552,435.272,-7.21E-02
1551.957,435.672,-7.23E-02
1552.36,436.072,-7.29E-02
1552.77,436.472,-7.41E-02
1553.17,436.872,-7.46E-02
1553.57,437.272,-7.59E-02
1553.976,437.672,-7.71E-02
1554.38,438.072,-7.74E-02
1554.78,438.472,-7.79E-02
1555.19,438.872,-7.89E-02
1555.59,439.272,-8.12E-02
1555.99,439.672,-8.11E-02
1556.394,440.072,-8.19E-02
1556.79,440.472,-8.27E-02
1557.19,440.872,-8.51E-02
1557.59,441.272,-8.60E-02
1557.99,441.672,-8.70E-02
1558.389,442.072,-8.79E-02
1558.79,442.472,-9.01E-02
1559.18,442.872,-9.09E-02
1559.58,443.272,-9.31E-02
1559.976,443.672,-9.40E-02
1560.372,444.072,-9.52E-02
1560.77,444.472,-9.57E-02
1561.16,444.872,-9.75E-02
1561.56,445.272,-9.92E-02
1561.95,445.672,-0.10045
1562.35,446.072,-0.10237
1562.74,446.472,-0.1043
1563.13,446.872,-0.10611
1563.53,447.272,-0.10718
1563.92,447.672,-0.10891
1564.311,448.072,-0.11207
1564.7,448.472,-0.11401
1565.094,448.872,-0.11497
1565.49,449.272,-0.11793
1565.88,449.672,-0.11981
1566.27,450.072,-0.12068
1566.66,450.472,-0.12289
1567.04,450.872,-0.12495
1567.43,451.272,-0.12775
1567.821,451.672,-0.12949
1568.21,452.072,-0.1325
1568.6,452.472,-0.13504
1568.99,452.872,-0.13802
1569.37,453.272,-0.14072
1569.76,453.672,-0.14356
1570.14,454.072,-0.14644
1570.53,454.472,-0.14813
1570.91,454.872,-0.15208
1571.29,455.272,-0.15395
1571.68,455.672,-0.15788
1572.06,456.072,-0.15948
1572.441,456.472,-0.16277
1572.82,456.872,-0.16525
1573.21,457.272,-0.16736
1573.59,457.672,-0.17002
1573.97,458.072,-0.17247
1574.35,458.472,-0.17398
1574.73,458.872,-0.17621
1575.111,459.272,-0.17905
1575.49,459.672,-0.18
1575.87,460.072,-0.18064
1576.25,460.472,-0.18181
1576.62,460.872,-0.18394
1577,461.272,-0.1861
1577.379,461.672,-0.18694
1577.76,462.072,-0.18909
1578.132,462.472,-0.19113
1578.51,462.872,-0.19201
1578.88,463.272,-0.1939
1579.26,463.672,-0.19484
1579.64,464.072,-0.19574
1580.01,464.472,-0.19714
1580.39,464.872,-0.19842
1580.76,465.272,-0.19956
1581.14,465.672,-0.20125
1581.51,466.072,-0.20302
1581.88,466.472,-0.20392
1582.257,466.872,-0.206
1582.629,467.272,-0.20697
1583.001,467.672,-0.20799
1583.37,468.072,-0.20895
1583.74,468.472,-0.2111
1584.12,468.872,-0.21309
1584.49,469.272,-0.21294
1584.855,469.672,-0.21385
1585.23,470.072,-0.21601
1585.59,470.472,-0.21645
1585.965,470.872,-0.21817
1586.33,471.272,-0.21902
1586.7,471.672,-0.22101
1587.07,472.072,-0.22191
1587.44,472.472,-0.22349
1587.81,472.872,-0.22507
1588.18,473.272,-0.22634
1588.542,473.672,-0.22734
1588.91,474.072,-0.22902
1589.28,474.472,-0.22996
1589.64,474.872,-0.23085
1590.009,475.272,-0.23298
1590.375,475.672,-0.23514
1590.741,476.072,-0.23601
1591.11,476.472,-0.23803
1591.47,476.872,-0.23978
1591.83,477.272,-0.24093
1592.2,477.672,-0.2398
1592.56,478.072,-0.24151
1592.93,478.472,-0.24308
1593.29,478.872,-0.24394
1593.65,479.272,-0.2459
1594.02,479.672,-0.24797
1594.38,480.072,-0.25014
1594.74,480.472,-0.25101
1595.1,480.872,-0.25302
1595.47,481.272,-0.25476
1595.83,481.672,-0.25633
1596.19,482.072,-0.25745
1596.55,482.472,-0.25847
1596.91,482.872,-0.26011
1597.27,483.272,-0.26017
1597.64,483.672,-0.2609
1598,484.072,-0.26318
1598.35,484.472,-0.26461
1598.71,484.872,-0.26604
1599.07,485.272,-0.26689
1599.432,485.672,-0.26892
1599.792,486.072,-0.27102
1600.15,486.472,-0.2731
1600.51,486.872,-0.27505
1600.87,487.272,-0.27589
1601.22,487.672,-0.27731
1601.58,488.072,-0.27871
1601.94,488.472,-0.27981
1602.297,488.872,-0.27898
1602.65,489.272,-0.28099
1603.01,489.672,-0.28188
1603.37,490.072,-0.28407
1603.72,490.472,-0.28611
1604.08,490.872,-0.28693
1604.44,491.272,-0.28775
1604.79,491.672,-0.28892
1605.15,492.072,-0.29035
1605.5,492.472,-0.292
1605.855,492.872,-0.29214
1606.21,493.272,-0.29292
1606.56,493.672,-0.29526
1606.92,494.072,-0.29513
1607.27,494.472,-0.29797
1607.63,494.872,-0.29871
1607.98,495.272,-0.29982
1608.33,495.672,-0.29984
1608.69,496.072,-0.30097
1609.04,496.472,-0.30178
1609.395,496.872,-0.30291
1609.75,497.272,-0.30398
1610.1,497.672,-0.30399
1610.45,498.072,-0.30602
1610.8,498.472,-0.30727
1611.153,498.872,-0.30639
1611.504,499.272,-0.30801
1611.855,499.672,-0.30896
1612.206,500.072,-0.31013
1612.56,500.472,-0.31025
1612.91,500.872,-0.31099
1613.256,501.272,-0.31181
1613.61,501.672,-0.31187
1613.96,502.072,-0.31311
1614.31,502.472,-0.31302
1614.654,502.872,-0.31419
1615,503.272,-0.31395
1615.353,503.672,-0.31494
1615.7,504.072,-0.315
1616.049,504.472,-0.31505
1616.4,504.872,-0.31592
1616.75,505.272,-0.3165
1617.09,505.672,-0.31597
1617.44,506.072,-0.31603
1617.79,506.472,-0.31687
1618.14,506.872,-0.31795
1618.485,507.272,-0.318
1618.83,507.672,-0.31806
1619.18,508.072,-0.31873
1619.52,508.472,-0.31994
1619.87,508.872,-0.32089
1620.21,509.272,-0.321
1620.56,509.672,-0.32123
1620.903,510.072,-0.32198
1621.248,510.472,-0.31979
1621.59,510.872,-0.32108
1621.94,511.272,-0.32093
1622.28,511.672,-0.32285
1622.63,512.072,-0.3223
1622.97,512.472,-0.32203
1623.32,512.872,-0.32201
1623.66,513.272,-0.32183
1624,513.672,-0.32417
1624.35,514.072,-0.32382
1624.69,514.472,-0.32296
1625.034,514.872,-0.32406
1625.376,515.272,-0.32393
1625.718,515.672,-0.32505
1626.06,516.072,-0.32499
1626.4,516.472,-0.325
1626.74,516.872,-0.32499
1627.09,517.272,-0.32502
1627.43,517.672,-0.32631
1627.77,518.072,-0.32692
1628.11,518.472,-0.32697
1628.45,518.872,-0.32595
1628.79,519.272,-0.32604
1629.13,519.672,-0.32624
1629.471,520.072,-0.32812
1629.81,520.472,-0.32682
1630.15,520.872,-0.32809
1630.49,521.272,-0.328
1630.83,521.672,-0.32791
1631.17,522.072,-0.32925
1631.51,522.472,-0.32696
1631.85,522.872,-0.32708
1632.19,523.272,-0.32784
1632.53,523.672,-0.32897
1632.86,524.072,-0.329
1633.2,524.472,-0.32899
1633.54,524.872,-0.32891
1633.88,525.272,-0.33084
1634.217,525.672,-0.33098
1634.55,526.072,-0.33124
1634.89,526.472,-0.332
1635.23,526.872,-0.33184
1635.57,527.272,-0.33249
1635.906,527.672,-0.33103
1636.24,528.072,-0.33204
1636.58,528.472,-0.33184
1636.92,528.872,-0.3341
1637.25,529.272,-0.3332
1637.589,529.672,-0.33346
1637.92,530.072,-0.33399
1638.26,530.472,-0.33392
1638.6,530.872,-0.33513
1638.93,531.272,-0.33512
1639.266,531.672,-0.33603
1639.6,532.072,-0.33599
1639.94,532.472,-0.33592
1640.27,532.872,-0.33779
1640.607,533.272,-0.33808
1640.94,533.672,-0.33708
1641.276,534.072,-0.33805
1641.61,534.472,-0.33856
1641.945,534.872,-0.33888
1642.28,535.272,-0.34083
1642.61,535.672,-0.34038
1642.95,536.072,-0.34005
1643.28,536.472,-0.33988
1643.61,536.872,-0.34205
1643.94,537.272,-0.34294
1644.28,537.672,-0.34186
1644.61,538.072,-0.34421
1644.94,538.472,-0.34419
1645.28,538.872,-0.34502
1645.61,539.272,-0.34506
1645.94,539.672,-0.34537
1646.28,540.072,-0.34704
1646.61,540.472,-0.34679
1646.94,540.872,-0.34911
1647.27,541.272,-0.35004
1647.6,541.672,-0.34836
1647.936,542.072,-0.34926
1648.27,542.472,-0.35099
1648.6,542.872,-0.352
1648.93,543.272,-0.35302
1649.26,543.672,-0.35469
1649.592,544.072,-0.35545
1649.92,544.472,-0.35615
1650.25,544.872,-0.35818
1650.585,545.272,-0.35672
1650.92,545.672,-0.35907
1651.25,546.072,-0.3598
1651.578,546.472,-0.36073
1651.91,546.872,-0.36202
1652.24,547.272,-0.36285
1652.57,547.672,-0.36506
1652.9,548.072,-0.367
1653.23,548.472,-0.36834
1653.56,548.872,-0.36921
1653.89,549.272,-0.37001
1654.218,549.672,-0.36978
1654.55,550.072,-0.37209
1654.88,550.472,-0.37382
1655.21,550.872,-0.37446
1655.53,551.272,-0.37491
1655.862,551.672,-0.37668
1656.19,552.072,-0.37675
1656.52,552.472,-0.37909
1656.85,552.872,-0.37967
1657.18,553.272,-0.38135
1657.51,553.672,-0.38301
1657.836,554.072,-0.38422
1658.16,554.472,-0.38746
1658.493,554.872,-0.38799
1658.82,555.272,-0.39016
1659.15,555.672,-0.39334
1659.48,556.072,-0.39486
1659.807,556.472,-0.39827
1660.14,556.872,-0.39905
1660.46,557.272,-0.40159
1660.79,557.672,-0.40443
1661.12,558.072,-0.40712
1661.45,558.472,-0.40969
1661.77,558.872,-0.40937
1662.099,559.272,-0.413
1662.43,559.672,-0.4153
1662.75,560.072,-0.41743
1663.08,560.472,-0.42087
1663.41,560.872,-0.42297
1663.74,561.272,-0.42618
1664.06,561.672,-0.42884
1664.39,562.072,-0.42855
1664.72,562.472,-0.43211
1665.04,562.872,-0.4336
1665.37,563.272,-0.43637
1665.69,563.672,-0.43896
1666.02,564.072,-0.44122
1666.35,564.472,-0.44341
1666.671,564.872,-0.44581
1667,565.272,-0.4484
1667.32,565.672,-0.45087
1667.649,566.072,-0.45115
1667.98,566.472,-0.45368
1668.3,566.872,-0.45601
1668.63,567.272,-0.45795
1668.96,567.672,-0.46037
1669.281,568.072,-0.46278
1669.61,568.472,-0.46559
1669.932,568.872,-0.46713
1670.26,569.272,-0.46962
1670.58,569.672,-0.47168
1670.91,570.072,-0.47505
1671.23,570.472,-0.47733
1671.56,570.872,-0.47921
1671.88,571.272,-0.48179
1672.206,571.672,-0.48452
1672.53,572.072,-0.48734
1672.86,572.472,-0.48992
1673.18,572.872,-0.49059
1673.505,573.272,-0.49403
1673.83,573.672,-0.49623
1674.15,574.072,-0.49952
1674.48,574.472,-0.50285
1674.804,574.872,-0.50495
1675.13,575.272,-0.50828
1675.45,575.672,-0.51091
1675.77,576.072,-0.51156
1676.1,576.472,-0.51499
1676.42,576.872,-0.51819
1676.75,577.272,-0.52126
1677.07,577.672,-0.52365
1677.39,578.072,-0.52691
1677.72,578.472,-0.53015
1678.04,578.872,-0.53336
1678.36,579.272,-0.53631
1678.686,579.672,-0.53892
1679.01,580.072,-0.53983
1679.33,580.472,-0.54306
1679.66,580.872,-0.54443
1679.98,581.272,-0.54737
1680.3,581.672,-0.55001
1680.624,582.072,-0.5528
1680.95,582.472,-0.55649
1681.27,582.872,-0.55871
1681.59,583.272,-0.5626
1681.914,583.672,-0.56515
1682.24,584.072,-0.56836
1682.56,584.472,-0.5716
1682.883,584.872,-0.57481
1683.21,585.272,-0.57752
1683.53,585.672,-0.58029
1683.85,586.072,-0.58432
1684.17,586.472,-0.58771
1684.5,586.872,-0.59096
1684.818,587.272,-0.59418
1685.14,587.672,-0.59742
1685.46,588.072,-0.60055
1685.79,588.472,-0.60496
1686.11,588.872,-0.60807
1686.43,589.272,-0.61129
1686.75,589.672,-0.61448
1687.07,590.072,-0.61859
1687.4,590.472,-0.62305
1687.719,590.872,-0.6262
1688.04,591.272,-0.62929
1688.36,591.672,-0.63365
1688.68,592.072,-0.63778
1689,592.472,-0.64151
1689.33,592.872,-0.64513
1689.648,593.272,-0.6481
1689.97,593.672,-0.65271
1690.29,594.072,-0.65687
1690.61,594.472,-0.6618
1690.93,594.872,-0.66544
1691.26,595.272,-0.67032
1691.58,595.672,-0.67471
1691.9,596.072,-0.67997
1692.22,596.472,-0.68513
1692.54,596.872,-0.68653
1692.86,597.272,-0.69252
1693.185,597.672,-0.6972
1693.51,598.072,-0.70312
1693.83,598.472,-0.70804
1694.15,598.872,-0.71188
1694.47,599.272,-0.71753
1694.79,599.672,-0.72339
1695.11,600.072,-0.72922
1695.43,600.472,-0.73481
1695.75,600.872,-0.73889
1696.08,601.272,-0.74552
1696.4,601.672,-0.75149
1696.72,602.072,-0.75744
1697.04,602.472,-0.76421
1697.36,602.872,-0.76911
1697.68,603.272,-0.77557
1698,603.672,-0.78186
1698.32,604.072,-0.78937
1698.64,604.472,-0.79475
1698.96,604.872,-0.80149
1699.28,605.272,-0.80867
1699.6,605.672,-0.81511
1699.93,606.072,-0.8216
1700.25,606.472,-0.82901
1700.57,606.872,-0.83562
1700.889,607.272,-0.8437
1701.21,607.672,-0.85007
1701.53,608.072,-0.85681
1701.852,608.472,-0.86491
1702.17,608.872,-0.87204
1702.49,609.272,-0.88082
1702.815,609.672,-0.88799
1703.136,610.072,-0.89601
1703.457,610.472,-0.90502
1703.78,610.872,-0.90763
1704.1,611.272,-0.91801
1704.42,611.672,-0.92389
1704.74,612.072,-0.93236
1705.06,612.472,-0.94302
1705.38,612.872,-0.95094
1705.71,613.272,-0.96118
1706.03,613.672,-0.9709
1706.35,614.072,-0.97947
1706.67,614.472,-0.99093
1706.99,614.872,-1.00029
1707.31,615.272,-1.00826
1707.63,615.672,-1.01896
1707.95,616.072,-1.02865
1708.27,616.472,-1.03998
1708.59,616.872,-1.04908
1708.91,617.272,-1.06048
1709.23,617.672,-1.07175
1709.55,618.072,-1.08183
1709.88,618.472,-1.09315
1710.198,618.872,-1.10376
1710.52,619.272,-1.11683
1710.84,619.672,-1.12724
1711.164,620.072,-1.13886
1711.49,620.472,-1.15146
1711.81,620.872,-1.16299
1712.13,621.272,-1.17725
1712.451,621.672,-1.18833
1712.77,622.072,-1.20076
1713.09,622.472,-1.21459
1713.42,622.872,-1.20992
1713.738,623.272,-1.41133
1714.059,623.672,-1.40589
1714.38,624.072,-1.42409
1714.7,624.472,-1.43915
1715.02,624.872,-1.46039
1715.35,625.272,-1.47729
1715.67,625.672,-1.49182
1715.99,626.072,-1.5056
1716.312,626.472,-1.52468
1716.63,626.872,-1.53998
1716.957,627.272,-1.55575
1717.28,627.672,-1.57382
1717.602,628.072,-1.59268
1717.926,628.472,-1.61018
1718.25,628.872,-1.62439
1718.571,629.272,-1.64509
1718.89,629.672,-1.66471
1719.216,630.072,-1.67891
1719.54,630.472,-1.69932
1719.861,630.872,-1.71606
1720.18,631.272,-1.73472
1720.51,631.672,-1.75641
1720.83,632.072,-1.7719
1721.15,632.472,-1.79142
1721.48,632.872,-1.80962
1721.8,633.272,-1.83145
1722.123,633.672,-1.85322
1722.45,634.072,-1.87128
1722.77,634.472,-1.89402
1723.09,634.872,-1.91369
1723.42,635.272,-1.93184
1723.74,635.672,-1.95466
1724.064,636.072,-1.97569
1724.39,636.472,-1.99466
1724.71,636.872,-2.01706
1725.04,637.272,-2.03864
1725.36,637.672,-2.05733
1725.69,638.072,-2.07891
1726.011,638.472,-2.10335
1726.34,638.872,-2.12628
1726.66,639.272,-2.14663
1726.99,639.672,-2.1674
1727.31,640.072,-2.18159
1727.63,640.472,-2.19973
1727.958,640.872,-2.22523
1728.28,641.272,-2.24783
1728.61,641.672,-2.27043
1728.93,642.072,-2.29423
1729.26,642.472,-2.314
1729.58,642.872,-2.33948
1729.91,643.272,-2.36265
1730.235,643.672,-2.38923
1730.56,644.072,-2.41431
1730.88,644.472,-2.43592
1731.21,644.872,-2.45943
1731.534,645.272,-2.48084
1731.86,645.672,-2.5088
1732.18,646.072,-2.53415
1732.51,646.472,-2.55675
1732.83,646.872,-2.58409
1733.16,647.272,-2.60742
1733.49,647.672,-2.6329
1733.81,648.072,-2.66031
1734.14,648.472,-2.68308
1734.47,648.872,-2.70843
1734.79,649.272,-2.73392
1735.12,649.672,-2.76061
1735.45,650.072,-2.78363
1735.77,650.472,-2.80948
1736.1,650.872,-2.83798
1736.43,651.272,-2.86236
1736.76,651.672,-2.88487
1737.08,652.072,-2.9106
1737.41,652.472,-2.93623
1737.74,652.872,-2.96195
1738.065,653.272,-2.98708
1738.392,653.672,-3.01389
1738.72,654.072,-3.03559
1739.05,654.472,-3.06412
1739.37,654.872,-3.08582
1739.7,655.272,-3.11313
1740.03,655.672,-3.13936
1740.36,656.072,-3.16101
1740.687,656.472,-3.18881
1741.02,656.872,-3.2155
1741.34,657.272,-3.24377
1741.67,657.672,-3.26451
1742,658.072,-3.28969
1742.33,658.472,-3.31604
1742.66,658.872,-3.33979
1742.991,659.272,-3.3644
1743.32,659.672,-3.39367
1743.65,660.072,-3.41705
1743.98,660.472,-3.4457
1744.31,660.872,-3.46342
1744.64,661.272,-3.49081
1744.97,661.672,-3.52164
1745.3,662.072,-3.54581
1745.63,662.472,-3.56751
1745.96,662.872,-3.59785
1746.29,663.272,-3.62306
1746.62,663.672,-3.64671
1746.95,664.072,-3.6715
1747.28,664.472,-3.69924
1747.61,664.872,-3.72548
1747.94,665.272,-3.7491
1748.27,665.672,-3.77776
1748.61,666.072,-3.80115
1748.937,666.472,-3.82727
1749.27,666.872,-3.85125
1749.6,667.272,-3.87602
1749.93,667.672,-3.90341
1750.266,668.072,-3.92415
1750.6,668.472,-3.94131
1750.93,668.872,-3.97212
1751.26,669.272,-3.99756
1751.6,669.672,-4.00829
1751.93,670.072,-4.03398
1752.26,670.472,-4.05922
1752.6,670.872,-4.08276
1752.93,671.272,-4.10756
1753.26,671.672,-4.13339
1753.59,672.072,-4.15556
1753.93,672.472,-4.1803
1754.26,672.872,-4.20642
1754.59,673.272,-4.22616
1754.93,673.672,-4.24979
1755.26,674.072,-4.27045
1755.59,674.472,-4.29534
1755.93,674.872,-4.31799
1756.26,675.272,-4.3419
1756.6,675.672,-4.35805
1756.94,676.072,-4.38069
1757.27,676.472,-4.40525
1757.607,676.872,-4.42412
1757.94,677.272,-4.44687
1758.28,677.672,-4.46783
1758.61,678.072,-4.48669
1758.95,678.472,-4.50884
1759.28,678.872,-4.52707
1759.62,679.272,-4.55082
1759.96,679.672,-4.56826
1760.29,680.072,-4.58464
1760.63,680.472,-4.60853
1760.97,680.872,-4.62657
1761.3,681.272,-4.64524
1761.642,681.672,-4.66383
1761.98,682.072,-4.68265
1762.32,682.472,-4.70295
1762.65,682.872,-4.72155
1762.99,683.272,-4.73817
1763.331,683.672,-4.75462
1763.67,684.072,-4.77047
1764.01,684.472,-4.78805
1764.35,684.872,-4.80319
1764.69,685.272,-4.8222
1765.02,685.672,-4.83627
1765.36,686.072,-4.85108
1765.7,686.472,-4.86807
1766.04,686.872,-4.88272
1766.38,687.272,-4.89422
1766.72,687.672,-4.90907
1767.06,688.072,-4.92459
1767.399,688.472,-4.93545
1767.74,688.872,-4.94619
1768.077,689.272,-4.95997
1768.42,689.672,-4.97269
1768.76,690.072,-4.98318
1769.1,690.472,-4.99486
1769.43,690.872,-5.00683
1769.775,691.272,-5.01715
1770.114,691.672,-5.02846
1770.45,692.072,-5.03873
1770.795,692.472,-5.04796
1771.14,692.872,-5.05603
1771.48,693.272,-5.06727
1771.82,693.672,-5.07596
1772.16,694.072,-5.08293
1772.5,694.472,-5.09588
1772.84,694.872,-5.1026
1773.18,695.272,-5.11102
1773.519,695.672,-5.11961
1773.86,696.072,-5.12958
1774.2,696.472,-5.13263
1774.54,696.872,-5.14075
1774.88,697.272,-5.14191
1775.23,697.672,-5.14997
1775.568,698.072,-5.15798
1775.91,698.472,-5.16509
1776.252,698.872,-5.16978
1776.59,699.272,-5.17919
1776.94,699.672,-5.18471
1777.28,700.072,-5.19067
1777.62,700.472,-5.19715
1777.97,700.872,-5.19968
1778.31,701.272,-5.20725
1778.65,701.672,-5.21186
1779,702.072,-5.21622
1779.34,702.472,-5.22358
1779.68,702.872,-5.22806
1780.02,703.272,-5.22507
1780.37,703.672,-5.22959
1780.71,704.072,-5.23511
1781.05,704.472,-5.23822
1781.4,704.872,-5.24121
1781.74,705.272,-5.24153
1782.08,705.672,-5.24395
1782.43,706.072,-5.24599
1782.77,706.472,-5.24869
1783.12,706.872,-5.24805
1783.46,707.272,-5.25172
1783.81,707.672,-5.25346
1784.15,708.072,-5.25672
1784.499,708.472,-5.257
1784.84,708.872,-5.26058
1785.19,709.272,-5.26246
1785.54,709.672,-5.26432
1785.88,710.072,-5.26697
1786.23,710.472,-5.26749
1786.57,710.872,-5.27082
1786.92,711.272,-5.27308
1787.27,711.672,-5.27565
1787.62,712.072,-5.27877
1787.96,712.472,-5.27943
1788.31,712.872,-5.28307
1788.66,713.272,-5.28471
1789,713.672,-5.28809
1789.35,714.072,-5.28974
1789.7,714.472,-5.291
1790.05,714.872,-5.29379
1790.39,715.272,-5.29582
1790.74,715.672,-5.29907
1791.09,716.072,-5.30089
1791.44,716.472,-5.30372
1791.786,716.872,-5.3051
1792.13,717.272,-5.30507
1792.48,717.672,-5.30792
1792.83,718.072,-5.30938
1793.18,718.472,-5.31038
1793.53,718.872,-5.31124
1793.88,719.272,-5.31293
1794.23,719.672,-5.31504
1794.58,720.072,-5.31604
1794.93,720.472,-5.31708
1795.28,720.872,-5.31701
1795.64,721.272,-5.31776
1795.99,721.672,-5.31882
1796.34,722.072,-5.31998
1796.69,722.472,-5.31994
1797.04,722.872,-5.32202
1797.393,723.272,-5.32304
1797.744,723.672,-5.32422
1798.09,724.072,-5.322
1798.45,724.472,-5.32417
1798.8,724.872,-5.32454
1799.15,725.272,-5.3252
1799.51,725.672,-5.32598
1799.86,726.072,-5.32774
1800.21,726.472,-5.32684
1800.56,726.872,-5.32685
1800.918,727.272,-5.3291
1801.27,727.672,-5.3289
1801.63,728.072,-5.32949
1801.98,728.472,-5.32979
1802.33,728.872,-5.33095
1802.69,729.272,-5.33103
1803.04,729.672,-5.32999
1803.4,730.072,-5.33097
1803.753,730.472,-5.33187
1804.11,730.872,-5.33299
1804.464,731.272,-5.332
1804.82,731.672,-5.33323
1805.175,732.072,-5.33395
1805.532,732.472,-5.33403
1805.889,732.872,-5.33303
1806.25,733.272,-5.33282
1806.6,733.672,-5.3352
1806.96,734.072,-5.335
1807.32,734.472,-5.33494
1807.68,734.872,-5.33397
1808.034,735.272,-5.3338
1808.39,735.672,-5.3364
1808.75,736.072,-5.33382
1809.11,736.472,-5.33399
1809.47,736.872,-5.33487
1809.83,737.272,-5.33497
1810.18,737.672,-5.33491
1810.54,738.072,-5.33609
1810.9,738.472,-5.336
1811.26,738.872,-5.336
1811.625,739.272,-5.336
1811.99,739.672,-5.336
1812.35,740.072,-5.336
1812.71,740.472,-5.336
1813.07,740.872,-5.336
1813.43,741.272,-5.336
1813.79,741.672,-5.336
1814.15,742.072,-5.33596
1814.514,742.472,-5.33587
1814.88,742.872,-5.33577
1815.24,743.272,-5.33595
1815.6,743.672,-5.33599
1815.96,744.072,-5.33598
1816.33,744.472,-5.3359
1816.69,744.872,-5.33499
1817.05,745.272,-5.335
1817.42,745.672,-5.33498
1817.781,746.072,-5.33483
1818.14,746.472,-5.33723
1818.51,746.872,-5.33598
1818.873,747.272,-5.33601
1819.236,747.672,-5.33599
1819.6,748.072,-5.3359
1819.97,748.472,-5.33709
1820.33,748.872,-5.33688
1820.697,749.272,-5.336
1821.06,749.672,-5.336
1821.43,750.072,-5.33596
1821.795,750.472,-5.33544
1822.16,750.872,-5.33613
1822.53,751.272,-5.33601
1822.89,751.672,-5.336
1823.26,752.072,-5.33603
1823.63,752.472,-5.33688
1824,752.872,-5.33477
1824.36,753.272,-5.33498
1824.732,753.672,-5.33499
1825.101,754.072,-5.335
1825.47,754.472,-5.33676
1825.839,754.872,-5.33696
1826.21,755.272,-5.337
1826.58,755.672,-5.337
1826.949,756.072,-5.337
1827.32,756.472,-5.33699
1827.69,756.872,-5.33705
1828.06,757.272,-5.33492
1828.43,757.672,-5.33499
1828.8,758.072,-5.33505
1829.18,758.472,-5.33572
1829.55,758.872,-5.33695
1829.92,759.272,-5.337
1830.29,759.672,-5.337
1830.66,760.072,-5.337
1831.04,760.472,-5.33702
1831.41,760.872,-5.33721
1831.782,761.272,-5.33477
1832.15,761.672,-5.33487
1832.53,762.072,-5.33714
1832.901,762.472,-5.337
1833.28,762.872,-5.33706
1833.65,763.272,-5.33595
1834.03,763.672,-5.33602
1834.401,764.072,-5.33651
1834.78,764.472,-5.33698
1835.15,764.872,-5.33705
1835.53,765.272,-5.33593
1835.9,765.672,-5.336
1836.28,766.072,-5.33691
1836.65,766.472,-5.33698
1837.03,766.872,-5.33697
1837.4,767.272,-5.3365
1837.78,767.672,-5.33642
1838.16,768.072,-5.33697
1838.54,768.472,-5.337
1838.91,768.872,-5.337
1839.29,769.272,-5.33703
1839.67,769.672,-5.33685
1840.05,770.072,-5.33698
1840.43,770.472,-5.337
1840.8,770.872,-5.33697
1841.18,771.272,-5.33662
1841.56,771.672,-5.33632
1841.94,772.072,-5.33698
1842.32,772.472,-5.337
1842.7,772.872,-5.337
1843.083,773.272,-5.33606
1843.46,773.672,-5.33584
1843.842,774.072,-5.33814
1844.22,774.472,-5.33823
1844.6,774.872,-5.3358
1844.985,775.272,-5.33598
1845.37,775.672,-5.336
1845.75,776.072,-5.336
1846.13,776.472,-5.336
1846.51,776.872,-5.336
1846.896,777.272,-5.336
1847.28,777.672,-5.33603
1847.661,778.072,-5.33768
1848.04,778.472,-5.33791
1848.43,778.872,-5.33669
1848.81,779.272,-5.33605
1849.19,779.672,-5.336
1849.58,780.072,-5.336
1849.96,780.472,-5.336
1850.35,780.872,-5.336
1850.73,781.272,-5.336
1851.12,781.672,-5.336
1851.504,782.072,-5.33601
1851.89,782.472,-5.3341
1852.27,782.872,-5.33581
1852.66,783.272,-5.33598
1853.05,783.672,-5.336
1853.43,784.072,-5.33597
1853.82,784.472,-5.33539
1854.2,784.872,-5.33492
1854.59,785.272,-5.33611
1854.975,785.672,-5.33601
1855.36,786.072,-5.33598
1855.75,786.472,-5.33578
1856.139,786.872,-5.33503
1856.53,787.272,-5.3351
1856.91,787.672,-5.33599
1857.3,788.072,-5.336
1857.693,788.472,-5.33602
1858.08,788.872,-5.33498
1858.47,789.272,-5.33493
1858.86,789.672,-5.33605
1859.25,790.072,-5.3361
1859.64,790.472,-5.33494
1860.033,790.872,-5.33499
1860.423,791.272,-5.33489
1860.81,791.672,-5.33603
1861.206,792.072,-5.33494
1861.6,792.472,-5.33405
1861.99,792.872,-5.33391
1862.38,793.272,-5.33511
1862.77,793.672,-5.33501
1863.165,794.072,-5.335
1863.56,794.472,-5.335
1863.95,794.872,-5.33495
1864.34,795.272,-5.33609
1864.73,795.672,-5.33608
1865.13,796.072,-5.33386
1865.52,796.472,-5.33399
1865.91,796.872,-5.334
1866.309,797.272,-5.33403
1866.7,797.672,-5.335
1867.1,798.072,-5.335
1867.491,798.472,-5.335
1867.89,798.872,-5.33499
1868.28,799.272,-5.33487
1868.67,799.672,-5.33525
1869.07,800.072,-5.33502
1869.465,800.472,-5.335
1869.86,800.872,-5.335
1870.26,801.272,-5.335
1870.65,801.672,-5.335
1871.05,802.072,-5.335
1871.45,802.472,-5.335
1871.84,802.872,-5.33499
1872.24,803.272,-5.33481
1872.64,803.672,-5.33734
1873.04,804.072,-5.33487
1873.43,804.472,-5.33499
1873.83,804.872,-5.335
1874.23,805.272,-5.33497
1874.62,805.672,-5.33436
1875.02,806.072,-5.33402
1875.42,806.472,-5.33399
1875.82,806.872,-5.33379
1876.221,807.272,-5.33617
1876.62,807.672,-5.33599
1877.02,808.072,-5.33541
1877.42,808.472,-5.33564
1877.82,808.872,-5.33598
1878.22,809.272,-5.336
1878.62,809.672,-5.33604
1879.02,810.072,-5.33672
1879.42,810.472,-5.33589
1879.82,810.872,-5.33599
1880.22,811.272,-5.336
1880.63,811.672,-5.33604
1881.03,812.072,-5.33677
1881.43,812.472,-5.3359
1881.83,812.872,-5.33599
1882.23,813.272,-5.336
1882.64,813.672,-5.33596
1883.04,814.072,-5.33516
1883.448,814.472,-5.33607
1883.93,814.872,-5.33601