File: Non-charring/PMMA/Sandia/SANDIA_TGA_Ar_50K_3.csv
Time,Temperature,Mass
[s],[K],[mg]
1200.1,306.944,-6.00E-03
1269.15,307.344,-1.11E-02
1284.16,307.744,-1.30E-02
1294.08,308.144,-1.60E-02
1301.57,308.544,-1.66E-02
1307.67,308.944,-1.91E-02
1312.86,309.344,-1.93E-02
1317.43,309.744,-2.15E-02
1321.461,310.144,-2.17E-02
1325.21,310.544,-2.06E-02
1328.64,310.944,-2.30E-02
1331.87,311.344,-2.39E-02
1334.85,311.744,-2.47E-02
1337.63,312.144,-2.52E-02
1340.253,312.544,-2.54E-02
1342.77,312.944,-2.64E-02
1345.182,313.344,-2.62E-02
1347.47,313.744,-2.62E-02
1349.69,314.144,-2.70E-02
1351.78,314.544,-2.78E-02
1353.81,314.944,-2.74E-02
1355.74,315.344,-2.73E-02
1357.6,315.744,-2.80E-02
1359.43,316.144,-2.83E-02
1361.22,316.544,-2.83E-02
1362.93,316.944,-2.82E-02
1364.58,317.344,-2.94E-02
1366.2,317.744,-2.94E-02
1367.799,318.144,-2.94E-02
1369.36,318.544,-3.05E-02
1370.86,318.944,-3.02E-02
1372.34,319.344,-3.09E-02
1373.77,319.744,-3.12E-02
1375.18,320.144,-3.05E-02
1376.56,320.544,-3.29E-02
1377.92,320.944,-3.10E-02
1379.25,321.344,-3.29E-02
1380.552,321.744,-3.38E-02
1381.842,322.144,-3.21E-02
1383.102,322.544,-3.30E-02
1384.35,322.944,-3.20E-02
1385.565,323.344,-3.22E-02
1386.759,323.744,-3.17E-02
1387.94,324.144,-3.12E-02
1389.11,324.544,-3.20E-02
1390.24,324.944,-3.24E-02
1391.38,325.344,-3.30E-02
1392.5,325.744,-3.40E-02
1393.61,326.144,-3.29E-02
1394.69,326.544,-3.40E-02
1395.762,326.944,-3.26E-02
1396.818,327.344,-3.31E-02
1397.865,327.744,-3.29E-02
1398.89,328.144,-3.20E-02
1399.91,328.544,-3.40E-02
1400.92,328.944,-3.21E-02
1401.91,329.344,-3.30E-02
1402.89,329.744,-3.29E-02
1403.86,330.144,-3.40E-02
1404.82,330.544,-3.38E-02
1405.76,330.944,-3.28E-02
1406.7,331.344,-3.40E-02
1407.63,331.744,-3.25E-02
1408.557,332.144,-3.38E-02
1409.48,332.544,-3.39E-02
1410.38,332.944,-3.35E-02
1411.28,333.344,-3.39E-02
1412.17,333.744,-3.37E-02
1413.05,334.144,-3.57E-02
1413.915,334.544,-3.51E-02
1414.78,334.944,-3.52E-02
1415.63,335.344,-3.49E-02
1416.48,335.744,-3.51E-02
1417.32,336.144,-3.50E-02
1418.16,336.544,-3.60E-02
1418.994,336.944,-3.61E-02
1419.82,337.344,-3.58E-02
1420.64,337.744,-3.55E-02
1421.45,338.144,-3.60E-02
1422.25,338.544,-3.42E-02
1423.04,338.944,-3.59E-02
1423.83,339.344,-3.64E-02
1424.62,339.744,-3.60E-02
1425.39,340.144,-3.61E-02
1426.17,340.544,-3.62E-02
1426.93,340.944,-3.48E-02
1427.69,341.344,-3.70E-02
1428.46,341.744,-3.60E-02
1429.21,342.144,-3.66E-02
1429.97,342.544,-3.70E-02
1430.718,342.944,-3.62E-02
1431.46,343.344,-3.72E-02
1432.19,343.744,-3.68E-02
1432.929,344.144,-3.71E-02
1433.664,344.544,-3.80E-02
1434.39,344.944,-3.73E-02
1435.12,345.344,-3.71E-02
1435.84,345.744,-3.86E-02
1436.55,346.144,-3.79E-02
1437.26,346.544,-3.67E-02
1437.96,346.944,-3.85E-02
1438.66,347.344,-3.79E-02
1439.36,347.744,-3.66E-02
1440.05,348.144,-3.78E-02
1440.735,348.544,-3.72E-02
1441.43,348.944,-3.85E-02
1442.11,349.344,-3.80E-02
1442.79,349.744,-3.83E-02
1443.47,350.144,-3.82E-02
1444.14,350.544,-3.80E-02
1444.81,350.944,-3.80E-02
1445.48,351.344,-3.80E-02
1446.14,351.744,-3.77E-02
1446.798,352.144,-3.76E-02
1447.45,352.544,-3.89E-02
1448.11,352.944,-3.70E-02
1448.76,353.344,-3.82E-02
1449.41,353.744,-3.90E-02
1450.05,354.144,-3.90E-02
1450.695,354.544,-3.70E-02
1451.33,354.944,-3.91E-02
1451.97,355.344,-3.84E-02
1452.6,355.744,-3.95E-02
1453.23,356.144,-3.90E-02
1453.857,356.544,-3.89E-02
1454.48,356.944,-4.00E-02
1455.1,357.344,-4.00E-02
1455.73,357.744,-3.90E-02
1456.35,358.144,-3.98E-02
1456.96,358.544,-3.87E-02
1457.58,358.944,-3.99E-02
1458.18,359.344,-4.02E-02
1458.79,359.744,-4.13E-02
1459.392,360.144,-4.12E-02
1459.995,360.544,-4.13E-02
1460.6,360.944,-4.11E-02
1461.19,361.344,-3.99E-02
1461.79,361.744,-4.22E-02
1462.38,362.144,-4.13E-02
1462.97,362.544,-4.23E-02
1463.56,362.944,-4.13E-02
1464.15,363.344,-4.00E-02
1464.73,363.744,-4.11E-02
1465.31,364.144,-4.19E-02
1465.89,364.544,-4.20E-02
1466.466,364.944,-4.10E-02
1467.04,365.344,-4.01E-02
1467.61,365.744,-4.24E-02
1468.18,366.144,-4.08E-02
1468.74,366.544,-4.21E-02
1469.31,366.944,-4.21E-02
1469.87,367.344,-4.22E-02
1470.44,367.744,-4.20E-02
1471,368.144,-4.42E-02
1471.56,368.544,-4.37E-02
1472.112,368.944,-4.30E-02
1472.67,369.344,-4.18E-02
1473.22,369.744,-4.18E-02
1473.771,370.144,-4.41E-02
1474.32,370.544,-4.20E-02
1474.87,370.944,-4.19E-02
1475.42,371.344,-4.39E-02
1475.97,371.744,-4.29E-02
1476.51,372.144,-4.30E-02
1477.05,372.544,-4.31E-02
1477.59,372.944,-4.47E-02
1478.133,373.344,-4.40E-02
1478.67,373.744,-4.22E-02
1479.21,374.144,-4.18E-02
1479.741,374.544,-4.40E-02
1480.27,374.944,-4.41E-02
1480.8,375.344,-4.21E-02
1481.33,375.744,-4.40E-02
1481.86,376.144,-4.30E-02
1482.39,376.544,-4.42E-02
1482.91,376.944,-4.30E-02
1483.437,377.344,-4.39E-02
1483.96,377.744,-4.21E-02
1484.48,378.144,-4.39E-02
1485.01,378.544,-4.40E-02
1485.525,378.944,-4.40E-02
1486.04,379.344,-4.19E-02
1486.56,379.744,-4.25E-02
1487.07,380.144,-4.31E-02
1487.59,380.544,-4.29E-02
1488.11,380.944,-4.30E-02
1488.62,381.344,-4.28E-02
1489.13,381.744,-4.18E-02
1489.65,382.144,-4.19E-02
1490.16,382.544,-4.30E-02
1490.66,382.944,-4.30E-02
1491.17,383.344,-4.38E-02
1491.68,383.744,-4.29E-02
1492.18,384.144,-4.30E-02
1492.68,384.544,-4.30E-02
1493.19,384.944,-4.28E-02
1493.69,385.344,-4.31E-02
1494.19,385.744,-4.29E-02
1494.69,386.144,-4.40E-02
1495.19,386.544,-4.36E-02
1495.69,386.944,-4.40E-02
1496.19,387.344,-4.40E-02
1496.69,387.744,-4.40E-02
1497.18,388.144,-4.41E-02
1497.67,388.544,-4.40E-02
1498.161,388.944,-4.48E-02
1498.65,389.344,-4.40E-02
1499.14,389.744,-4.44E-02
1499.63,390.144,-4.62E-02
1500.12,390.544,-4.40E-02
1500.61,390.944,-4.40E-02
1501.09,391.344,-4.40E-02
1501.58,391.744,-4.40E-02
1502.06,392.144,-4.57E-02
1502.55,392.544,-4.60E-02
1503.04,392.944,-4.58E-02
1503.52,393.344,-4.49E-02
1504,393.744,-4.50E-02
1504.48,394.144,-4.59E-02
1504.96,394.544,-4.60E-02
1505.433,394.944,-4.60E-02
1505.91,395.344,-4.70E-02
1506.39,395.744,-4.70E-02
1506.86,396.144,-4.70E-02
1507.34,396.544,-4.72E-02
1507.81,396.944,-4.58E-02
1508.283,397.344,-4.60E-02
1508.754,397.744,-4.71E-02
1509.22,398.144,-4.70E-02
1509.69,398.544,-4.70E-02
1510.164,398.944,-4.89E-02
1510.63,399.344,-4.80E-02
1511.1,399.744,-4.80E-02
1511.57,400.144,-4.80E-02
1512.03,400.544,-4.80E-02
1512.49,400.944,-4.80E-02
1512.954,401.344,-4.79E-02
1513.42,401.744,-5.02E-02
1513.87,402.144,-5.01E-02
1514.33,402.544,-4.90E-02
1514.79,402.944,-4.90E-02
1515.25,403.344,-4.90E-02
1515.71,403.744,-4.90E-02
1516.16,404.144,-4.90E-02
1516.62,404.544,-5.02E-02
1517.073,404.944,-5.10E-02
1517.53,405.344,-5.10E-02
1517.982,405.744,-5.10E-02
1518.43,406.144,-5.09E-02
1518.89,406.544,-5.20E-02
1519.34,406.944,-5.20E-02
1519.78,407.344,-5.20E-02
1520.23,407.744,-5.20E-02
1520.68,408.144,-5.29E-02
1521.13,408.544,-5.30E-02
1521.58,408.944,-5.30E-02
1522.02,409.344,-5.30E-02
1522.47,409.744,-5.39E-02
1522.91,410.144,-5.40E-02
1523.358,410.544,-5.40E-02
1523.8,410.944,-5.40E-02
1524.24,411.344,-5.40E-02
1524.68,411.744,-5.49E-02
1525.12,412.144,-5.50E-02
1525.56,412.544,-5.50E-02
1526.001,412.944,-5.50E-02
1526.44,413.344,-5.50E-02
1526.88,413.744,-5.49E-02
1527.32,414.144,-5.60E-02
1527.75,414.544,-5.60E-02
1528.19,414.944,-5.60E-02
1528.62,415.344,-5.60E-02
1529.05,415.744,-5.61E-02
1529.49,416.144,-5.79E-02
1529.919,416.544,-5.80E-02
1530.351,416.944,-5.80E-02
1530.78,417.344,-5.80E-02
1531.21,417.744,-5.80E-02
1531.64,418.144,-5.80E-02
1532.07,418.544,-5.80E-02
1532.5,418.944,-5.80E-02
1532.93,419.344,-5.80E-02
1533.354,419.744,-5.80E-02
1533.78,420.144,-5.80E-02
1534.21,420.544,-5.80E-02
1534.63,420.944,-5.78E-02
1535.06,421.344,-6.01E-02
1535.481,421.744,-6.00E-02
1535.9,422.144,-6.00E-02
1536.33,422.544,-6.00E-02
1536.75,422.944,-6.04E-02
1537.17,423.344,-6.19E-02
1537.59,423.744,-6.20E-02
1538.01,424.144,-6.20E-02
1538.433,424.544,-6.20E-02
1538.85,424.944,-6.20E-02
1539.27,425.344,-6.20E-02
1539.69,425.744,-6.30E-02
1540.11,426.144,-6.30E-02
1540.53,426.544,-6.30E-02
1540.94,426.944,-6.30E-02
1541.36,427.344,-6.30E-02
1541.77,427.744,-6.30E-02
1542.19,428.144,-6.35E-02
1542.6,428.544,-6.50E-02
1543.02,428.944,-6.59E-02
1543.428,429.344,-6.60E-02
1543.84,429.744,-6.59E-02
1544.26,430.144,-6.70E-02
1544.67,430.544,-6.70E-02
1545.084,430.944,-6.70E-02
1545.5,431.344,-6.70E-02
1545.91,431.744,-6.70E-02
1546.32,432.144,-6.80E-02
1546.73,432.544,-6.80E-02
1547.14,432.944,-6.80E-02
1547.55,433.344,-6.79E-02
1547.955,433.744,-6.91E-02
1548.363,434.144,-6.90E-02
1548.77,434.544,-6.90E-02
1549.176,434.944,-6.88E-02
1549.58,435.344,-7.12E-02
1549.99,435.744,-7.10E-02
1550.4,436.144,-7.10E-02
1550.8,436.544,-7.10E-02
1551.21,436.944,-7.10E-02
1551.61,437.344,-7.08E-02
1552.02,437.744,-7.32E-02
1552.42,438.144,-7.30E-02
1552.82,438.544,-7.29E-02
1553.23,438.944,-7.41E-02
1553.631,439.344,-7.40E-02
1554.03,439.744,-7.39E-02
1554.43,440.144,-7.51E-02
1554.83,440.544,-7.50E-02
1555.23,440.944,-7.57E-02
1555.632,441.344,-7.60E-02
1556.03,441.744,-7.58E-02
1556.43,442.144,-7.81E-02
1556.83,442.544,-7.80E-02
1557.23,442.944,-7.80E-02
1557.63,443.344,-7.80E-02
1558.03,443.744,-7.78E-02
1558.428,444.144,-8.01E-02
1558.83,444.544,-7.99E-02
1559.22,444.944,-8.11E-02
1559.62,445.344,-8.09E-02
1560.02,445.744,-8.21E-02
1560.41,446.144,-8.18E-02
1560.81,446.544,-8.42E-02
1561.2,446.944,-8.40E-02
1561.593,447.344,-8.41E-02
1561.99,447.744,-8.48E-02
1562.379,448.144,-8.59E-02
1562.772,448.544,-8.71E-02
1563.16,448.944,-8.73E-02
1563.56,449.344,-8.80E-02
1563.951,449.744,-8.84E-02
1564.34,450.144,-8.99E-02
1564.73,450.544,-9.11E-02
1565.12,450.944,-9.11E-02
1565.51,451.344,-9.20E-02
1565.9,451.744,-9.20E-02
1566.29,452.144,-9.40E-02
1566.68,452.544,-9.40E-02
1567.06,452.944,-9.57E-02
1567.45,453.344,-9.60E-02
1567.84,453.744,-9.58E-02
1568.229,454.144,-9.82E-02
1568.61,454.544,-9.92E-02
1569,454.944,-0.10049
1569.387,455.344,-0.10144
1569.77,455.744,-0.10265
1570.16,456.144,-0.10398
1570.54,456.544,-0.10436
1570.926,456.944,-0.10616
1571.31,457.344,-0.10799
1571.69,457.744,-0.10796
1572.08,458.144,-0.10993
1572.46,458.544,-0.11208
1572.84,458.944,-0.11179
1573.22,459.344,-0.11405
1573.6,459.744,-0.1149
1573.98,460.144,-0.11705
1574.36,460.544,-0.11921
1574.74,460.944,-0.11892
1575.123,461.344,-0.12106
1575.504,461.744,-0.12301
1575.88,462.144,-0.12386
1576.26,462.544,-0.12484
1576.64,462.944,-0.12577
1577.02,463.344,-0.12727
1577.397,463.744,-0.12894
1577.77,464.144,-0.13033
1578.15,464.544,-0.13143
1578.53,464.944,-0.13309
1578.9,465.344,-0.13403
1579.28,465.744,-0.13506
1579.653,466.144,-0.13587
1580.03,466.544,-0.13794
1580.4,466.944,-0.1401
1580.78,467.344,-0.14103
1581.15,467.744,-0.14199
1581.53,468.144,-0.14408
1581.9,468.544,-0.14601
1582.27,468.944,-0.14693
1582.65,469.344,-0.14864
1583.019,469.744,-0.14854
1583.391,470.144,-0.14988
1583.76,470.544,-0.15126
1584.13,470.944,-0.15226
1584.5,471.344,-0.15401
1584.88,471.744,-0.1549
1585.248,472.144,-0.15698
1585.62,472.544,-0.15726
1585.99,472.944,-0.15914
1586.36,473.344,-0.15999
1586.73,473.744,-0.16211
1587.1,474.144,-0.163
1587.47,474.544,-0.16474
1587.834,474.944,-0.16571
1588.2,475.344,-0.16698
1588.57,475.744,-0.16783
1588.94,476.144,-0.16884
1589.31,476.544,-0.17004
1589.67,476.944,-0.17093
1590.04,477.344,-0.17253
1590.41,477.744,-0.17411
1590.78,478.144,-0.17536
1591.15,478.544,-0.17637
1591.51,478.944,-0.17802
1591.88,479.344,-0.17902
1592.244,479.744,-0.17879
1592.61,480.144,-0.18107
1592.97,480.544,-0.18195
1593.34,480.944,-0.18409
1593.7,481.344,-0.18602
1594.07,481.744,-0.1869
1594.43,482.144,-0.1884
1594.8,482.544,-0.18991
1595.16,482.944,-0.19123
1595.52,483.344,-0.19215
1595.88,483.744,-0.19398
1596.25,484.144,-0.19485
1596.61,484.544,-0.19698
1596.97,484.944,-0.19922
1597.34,485.344,-0.19897
1597.7,485.744,-0.2
1598.06,486.144,-0.20169
1598.42,486.544,-0.20324
1598.78,486.944,-0.20472
1599.14,487.344,-0.20603
1599.5,487.744,-0.20901
1599.86,488.144,-0.20988
1600.22,488.544,-0.2113
1600.584,488.944,-0.21269
1600.944,489.344,-0.21525
1601.3,489.744,-0.21602
1601.66,490.144,-0.21789
1602.02,490.544,-0.21946
1602.381,490.944,-0.22039
1602.74,491.344,-0.2233
1603.098,491.744,-0.22498
1603.46,492.144,-0.22695
1603.81,492.544,-0.23037
1604.17,492.944,-0.23115
1604.53,493.344,-0.23416
1604.88,493.744,-0.23692
1605.24,494.144,-0.23829
1605.6,494.544,-0.24169
1605.96,494.944,-0.24245
1606.31,495.344,-0.24506
1606.671,495.744,-0.24679
1607.03,496.144,-0.24968
1607.38,496.544,-0.25092
1607.74,496.944,-0.25324
1608.09,497.344,-0.25599
1608.45,497.744,-0.25575
1608.804,498.144,-0.25707
1609.16,498.544,-0.25849
1609.51,498.944,-0.26003
1609.866,499.344,-0.26088
1610.22,499.744,-0.26305
1610.57,500.144,-0.26394
1610.93,500.544,-0.26601
1611.28,500.944,-0.26591
1611.63,501.344,-0.26733
1611.984,501.744,-0.26793
1612.338,502.144,-0.26791
1612.69,502.544,-0.26996
1613.04,502.944,-0.27158
1613.4,503.344,-0.27089
1613.748,503.744,-0.27142
1614.1,504.144,-0.273
1614.45,504.544,-0.27392
1614.8,504.944,-0.2744
1615.152,505.344,-0.27625
1615.503,505.744,-0.27601
1615.854,506.144,-0.27695
1616.2,506.544,-0.27802
1616.55,506.944,-0.27925
1616.9,507.344,-0.277
1617.25,507.744,-0.27913
1617.6,508.144,-0.27907
1617.95,508.544,-0.27943
1618.299,508.944,-0.281
1618.65,509.344,-0.28177
1618.998,509.744,-0.28178
1619.35,510.144,-0.28419
1619.7,510.544,-0.284
1620.04,510.944,-0.28405
1620.393,511.344,-0.28492
1620.741,511.744,-0.286
1621.09,512.144,-0.28505
1621.44,512.544,-0.28505
1621.78,512.944,-0.2854
1622.13,513.344,-0.28599
1622.48,513.744,-0.28594
1622.82,514.144,-0.28708
1623.17,514.544,-0.28701
1623.52,514.944,-0.28701
1623.861,515.344,-0.28683
1624.21,515.744,-0.28929
1624.55,516.144,-0.28786
1624.9,516.544,-0.289
1625.24,516.944,-0.28898
1625.59,517.344,-0.2889
1625.94,517.744,-0.29007
1626.28,518.144,-0.29006
1626.63,518.544,-0.28958
1626.97,518.944,-0.28998
1627.32,519.344,-0.29005
1627.66,519.744,-0.29105
1628,520.144,-0.29116
1628.35,520.544,-0.29031
1628.69,520.944,-0.29202
1629.03,521.344,-0.29202
1629.38,521.744,-0.29208
1629.72,522.144,-0.29096
1630.06,522.544,-0.29084
1630.4,522.944,-0.2932
1630.74,523.344,-0.29297
1631.09,523.744,-0.29393
1631.43,524.144,-0.29268
1631.77,524.544,-0.29238
1632.11,524.944,-0.29299
1632.46,525.344,-0.29305
1632.8,525.744,-0.29396
1633.14,526.144,-0.29497
1633.48,526.544,-0.29495
1633.82,526.944,-0.29608
1634.16,527.344,-0.29594
1634.5,527.744,-0.29701
1634.84,528.144,-0.29701
1635.18,528.544,-0.29736
1635.53,528.944,-0.29778
1635.87,529.344,-0.29595
1636.206,529.744,-0.29651
1636.55,530.144,-0.29693
1636.89,530.544,-0.29794
1637.23,530.944,-0.29739
1637.56,531.344,-0.29762
1637.9,531.744,-0.299
1638.24,532.144,-0.2989
1638.58,532.544,-0.30008
1638.918,532.944,-0.29992
1639.26,533.344,-0.29976
1639.59,533.744,-0.29987
1639.93,534.144,-0.30109
1640.27,534.544,-0.30085
1640.61,534.944,-0.30329
1640.946,535.344,-0.30192
1641.28,535.744,-0.302
1641.62,536.144,-0.30179
1641.96,536.544,-0.30423
1642.29,536.944,-0.30398
1642.63,537.344,-0.30444
1642.97,537.744,-0.30468
1643.307,538.144,-0.30599
1643.64,538.544,-0.30597
1643.98,538.944,-0.30544
1644.32,539.344,-0.30709
1644.65,539.744,-0.30775
1644.99,540.144,-0.30779
1645.32,540.544,-0.31015
1645.66,540.944,-0.30915
1645.99,541.344,-0.30908
1646.33,541.744,-0.30924
1646.664,542.144,-0.31098
1647,542.544,-0.31186
1647.33,542.944,-0.3139
1647.67,543.344,-0.31184
1648.002,543.744,-0.31314
1648.34,544.144,-0.3133
1648.67,544.544,-0.31505
1649.01,544.944,-0.3148
1649.34,545.344,-0.31713
1649.67,545.744,-0.31791
1650.009,546.144,-0.31852
1650.34,546.544,-0.31899
1650.68,546.944,-0.31894
1651.01,547.344,-0.31997
1651.35,547.744,-0.321
1651.68,548.144,-0.32285
1652.01,548.544,-0.32357
1652.34,548.944,-0.32436
1652.68,549.344,-0.32598
1653.01,549.744,-0.32689
1653.34,550.144,-0.32914
1653.675,550.544,-0.3299
1654.008,550.944,-0.33003
1654.34,551.344,-0.33035
1654.67,551.744,-0.33198
1655.01,552.144,-0.3329
1655.34,552.544,-0.33513
1655.67,552.944,-0.33588
1656,553.344,-0.33653
1656.33,553.744,-0.33724
1656.66,554.144,-0.33898
1656.99,554.544,-0.33991
1657.326,554.944,-0.34208
1657.656,555.344,-0.34363
1657.99,555.744,-0.34428
1658.32,556.144,-0.34605
1658.649,556.544,-0.34569
1658.98,556.944,-0.34928
1659.31,557.344,-0.3501
1659.64,557.744,-0.35214
1659.969,558.144,-0.35232
1660.3,558.544,-0.35399
1660.63,558.944,-0.35712
1660.96,559.344,-0.35828
1661.29,559.744,-0.36092
1661.62,560.144,-0.36212
1661.95,560.544,-0.36262
1662.282,560.944,-0.36596
1662.612,561.344,-0.36803
1662.94,561.744,-0.37121
1663.27,562.144,-0.37385
1663.6,562.544,-0.37542
1663.93,562.944,-0.37829
1664.26,563.344,-0.37912
1664.59,563.744,-0.38205
1664.919,564.144,-0.38407
1665.25,564.544,-0.38646
1665.58,564.944,-0.38996
1665.91,565.344,-0.39105
1666.23,565.744,-0.39472
1666.56,566.144,-0.39736
1666.893,566.544,-0.39995
1667.22,566.944,-0.40255
1667.55,567.344,-0.40109
1667.88,567.744,-0.40487
1668.207,568.144,-0.40707
1668.54,568.544,-0.40915
1668.864,568.944,-0.41085
1669.191,569.344,-0.41293
1669.518,569.744,-0.41514
1669.845,570.144,-0.41778
1670.172,570.544,-0.41927
1670.5,570.944,-0.422
1670.83,571.344,-0.42308
1671.15,571.744,-0.42626
1671.483,572.144,-0.42891
1671.81,572.544,-0.43
1672.14,572.944,-0.43213
1672.47,573.344,-0.43465
1672.8,573.744,-0.43777
1673.12,574.144,-0.43706
1673.45,574.544,-0.44065
1673.778,574.944,-0.44276
1674.105,575.344,-0.44503
1674.432,575.744,-0.44845
1674.76,576.144,-0.45055
1675.086,576.544,-0.45291
1675.41,576.944,-0.4558
1675.74,577.344,-0.45629
1676.07,577.744,-0.45882
1676.39,578.144,-0.46206
1676.72,578.544,-0.46417
1677.05,578.944,-0.46673
1677.375,579.344,-0.46986
1677.7,579.744,-0.47201
1678.03,580.144,-0.47539
1678.35,580.544,-0.47741
1678.68,580.944,-0.4809
1679.007,581.344,-0.48131
1679.33,581.744,-0.48421
1679.66,582.144,-0.48654
1679.99,582.544,-0.48952
1680.312,582.944,-0.49109
1680.64,583.344,-0.4945
1680.96,583.744,-0.49655
1681.29,584.144,-0.49989
1681.62,584.544,-0.50197
1681.94,584.944,-0.50447
1682.27,585.344,-0.50764
1682.59,585.744,-0.51036
1682.919,586.144,-0.51421
1683.24,586.544,-0.51555
1683.57,586.944,-0.51807
1683.9,587.344,-0.51994
1684.22,587.744,-0.5232
1684.55,588.144,-0.52651
1684.872,588.544,-0.52883
1685.2,588.944,-0.532
1685.52,589.344,-0.53521
1685.85,589.744,-0.53842
1686.17,590.144,-0.54138
1686.49,590.544,-0.54393
1686.819,590.944,-0.54708
1687.14,591.344,-0.55153
1687.47,591.744,-0.55466
1687.79,592.144,-0.55751
1688.12,592.544,-0.56031
1688.45,592.944,-0.56366
1688.772,593.344,-0.56787
1689.1,593.744,-0.57098
1689.42,594.144,-0.57348
1689.75,594.544,-0.57761
1690.07,594.944,-0.58064
1690.4,595.344,-0.5851
1690.722,595.744,-0.58831
1691.05,596.144,-0.59242
1691.37,596.544,-0.59678
1691.697,596.944,-0.60095
1692.02,597.344,-0.60512
1692.348,597.744,-0.60913
1692.67,598.144,-0.61151
1693,598.544,-0.61596
1693.32,598.944,-0.62038
1693.65,599.344,-0.62516
1693.97,599.744,-0.62934
1694.3,600.144,-0.63394
1694.622,600.544,-0.6382
1694.946,600.944,-0.64291
1695.27,601.344,-0.64853
1695.6,601.744,-0.65239
1695.92,602.144,-0.65736
1696.24,602.544,-0.66215
1696.569,602.944,-0.66736
1696.89,603.344,-0.67291
1697.22,603.744,-0.67706
1697.54,604.144,-0.68272
1697.868,604.544,-0.6884
1698.19,604.944,-0.69391
1698.516,605.344,-0.69825
1698.84,605.744,-0.70413
1699.17,606.144,-0.71042
1699.49,606.544,-0.71582
1699.81,606.944,-0.72173
1700.14,607.344,-0.72783
1700.463,607.744,-0.73332
1700.79,608.144,-0.74094
1701.11,608.544,-0.74612
1701.438,608.944,-0.75136
1701.762,609.344,-0.75828
1702.09,609.744,-0.76376
1702.41,610.144,-0.77193
1702.74,610.544,-0.7787
1703.06,610.944,-0.78613
1703.388,611.344,-0.79317
1703.712,611.744,-0.80026
1704.04,612.144,-0.80872
1704.36,612.544,-0.81288
1704.69,612.944,-0.8216
1705.01,613.344,-0.82985
1705.335,613.744,-0.83693
1705.659,614.144,-0.846
1705.983,614.544,-0.8536
1706.31,614.944,-0.86224
1706.63,615.344,-0.87013
1706.96,615.744,-0.87685
1707.28,616.144,-0.88614
1707.61,616.544,-0.89362
1707.93,616.944,-0.9033
1708.26,617.344,-0.90747
1708.58,617.744,-0.91545
1708.91,618.144,-0.92526
1709.23,618.544,-0.93432
1709.556,618.944,-0.9426
1709.88,619.344,-0.95242
1710.207,619.744,-0.9616
1710.53,620.144,-0.97223
1710.86,620.544,-0.98109
1711.18,620.944,-0.99077
1711.506,621.344,-1.0022
1711.83,621.744,-1.01105
1712.16,622.144,-1.02294
1712.48,622.544,-1.03248
1712.81,622.944,-1.0432
1713.13,623.344,-1.05503
1713.46,623.744,-1.06454
1713.78,624.144,-1.07622
1714.11,624.544,-1.08631
1714.43,624.944,-1.09723
1714.76,625.344,-1.11023
1715.08,625.744,-1.12048
1715.41,626.144,-1.13346
1715.74,626.544,-1.14502
1716.06,626.944,-1.15717
1716.39,627.344,-1.16925
1716.711,627.744,-1.17947
1717.04,628.144,-1.19361
1717.36,628.544,-1.205
1717.689,628.944,-1.21946
1718.02,629.344,-1.23171
1718.34,629.744,-1.24556
1718.67,630.144,-1.24689
1718.99,630.544,-1.43577
1719.32,630.944,-1.43946
1719.64,631.344,-1.45137
1719.97,631.744,-1.46723
1720.3,632.144,-1.48286
1720.62,632.544,-1.49952
1720.95,632.944,-1.51233
1721.28,633.344,-1.52993
1721.601,633.744,-1.54375
1721.928,634.144,-1.56136
1722.25,634.544,-1.57648
1722.58,634.944,-1.59514
1722.909,635.344,-1.60737
1723.23,635.744,-1.62421
1723.56,636.144,-1.64272
1723.89,636.544,-1.65838
1724.217,636.944,-1.67714
1724.544,637.344,-1.69235
1724.871,637.744,-1.71265
1725.198,638.144,-1.72419
1725.52,638.544,-1.74448
1725.85,638.944,-1.76031
1726.18,639.344,-1.77542
1726.51,639.744,-1.79831
1726.833,640.144,-1.81555
1727.16,640.544,-1.83497
1727.49,640.944,-1.85534
1727.82,641.344,-1.87231
1728.14,641.744,-1.8886
1728.47,642.144,-1.90746
1728.8,642.544,-1.92962
1729.13,642.944,-1.9505
1729.46,643.344,-1.96824
1729.785,643.744,-1.98915
1730.11,644.144,-2.00872
1730.442,644.544,-2.02876
1730.77,644.944,-2.04925
1731.1,645.344,-2.06789
1731.43,645.744,-2.09133
1731.756,646.144,-2.0951
1732.08,646.544,-2.11483
1732.41,646.944,-2.13931
1732.74,647.344,-2.15845
1733.07,647.744,-2.18182
1733.4,648.144,-2.20165
1733.73,648.544,-2.21886
1734.06,648.944,-2.24233
1734.387,649.344,-2.26179
1734.717,649.744,-2.28525
1735.05,650.144,-2.30561
1735.38,650.544,-2.33123
1735.71,650.944,-2.34933
1736.04,651.344,-2.36869
1736.37,651.744,-2.39177
1736.7,652.144,-2.41375
1737.03,652.544,-2.43925
1737.36,652.944,-2.45782
1737.69,653.344,-2.47506
1738.02,653.744,-2.49865
1738.35,654.144,-2.52136
1738.68,654.544,-2.54636
1739.007,654.944,-2.56647
1739.337,655.344,-2.58517
1739.67,655.744,-2.60879
1740,656.144,-2.62896
1740.33,656.544,-2.64912
1740.66,656.944,-2.67337
1740.99,657.344,-2.69583
1741.32,657.744,-2.71558
1741.66,658.144,-2.73658
1741.99,658.544,-2.75628
1742.32,658.944,-2.7815
1742.65,659.344,-2.80333
1742.985,659.744,-2.82188
1743.32,660.144,-2.84418
1743.648,660.544,-2.86518
1743.98,660.944,-2.88473
1744.31,661.344,-2.90686
1744.64,661.744,-2.92828
1744.98,662.144,-2.95128
1745.31,662.544,-2.9695
1745.64,662.944,-2.98897
1745.98,663.344,-3.01478
1746.31,663.744,-3.03451
1746.642,664.144,-3.05753
1746.98,664.544,-3.0785
1747.31,664.944,-3.0987
1747.644,665.344,-3.12271
1747.977,665.744,-3.14184
1748.31,666.144,-3.16374
1748.64,666.544,-3.18647
1748.98,666.944,-3.21095
1749.315,667.344,-3.23398
1749.65,667.744,-3.25436
1749.984,668.144,-3.27694
1750.32,668.544,-3.30013
1750.65,668.944,-3.32153
1750.99,669.344,-3.34509
1751.32,669.744,-3.36868
1751.66,670.144,-3.39264
1751.99,670.544,-3.40894
1752.33,670.944,-3.43447
1752.66,671.344,-3.45621
1753,671.744,-3.4784
1753.34,672.144,-3.50345
1753.67,672.544,-3.52266
1754.01,672.944,-3.54159
1754.34,673.344,-3.5697
1754.68,673.744,-3.59564
1755.02,674.144,-3.62144
1755.35,674.544,-3.62934
1755.69,674.944,-3.64381
1756.03,675.344,-3.66698
1756.36,675.744,-3.68791
1756.698,676.144,-3.71086
1757.03,676.544,-3.73117
1757.37,676.944,-3.75056
1757.71,677.344,-3.77039
1758.05,677.744,-3.78938
1758.38,678.144,-3.80963
1758.72,678.544,-3.82829
1759.06,678.944,-3.85128
1759.39,679.344,-3.87243
1759.73,679.744,-3.88946
1760.07,680.144,-3.90541
1760.406,680.544,-3.92529
1760.74,680.944,-3.94604
1761.08,681.344,-3.96296
1761.42,681.744,-3.98174
1761.76,682.144,-3.99748
1762.1,682.544,-4.01481
1762.44,682.944,-4.03201
1762.77,683.344,-4.05007
1763.11,683.744,-4.06864
1763.454,684.144,-4.08021
1763.79,684.544,-4.09807
1764.13,684.944,-4.11778
1764.474,685.344,-4.133
1764.81,685.744,-4.14956
1765.155,686.144,-4.16293
1765.5,686.544,-4.1788
1765.836,686.944,-4.19735
1766.18,687.344,-4.21148
1766.517,687.744,-4.22692
1766.86,688.144,-4.24146
1767.2,688.544,-4.25609
1767.54,688.944,-4.26964
1767.88,689.344,-4.28137
1768.221,689.744,-4.29255
1768.56,690.144,-4.30543
1768.9,690.544,-4.32013
1769.244,690.944,-4.3311
1769.58,691.344,-4.34273
1769.925,691.744,-4.35338
1770.27,692.144,-4.36002
1770.61,692.544,-4.37012
1770.948,692.944,-4.38159
1771.29,693.344,-4.39073
1771.63,693.744,-4.40231
1771.97,694.144,-4.41061
1772.31,694.544,-4.4196
1772.655,694.944,-4.42774
1772.997,695.344,-4.43425
1773.34,695.744,-4.44379
1773.681,696.144,-4.45145
1774.02,696.544,-4.46014
1774.36,696.944,-4.46589
1774.71,697.344,-4.47313
1775.05,697.744,-4.48139
1775.391,698.144,-4.48622
1775.73,698.544,-4.49374
1776.08,698.944,-4.5014
1776.42,699.344,-4.50774
1776.76,699.744,-4.51423
1777.11,700.144,-4.52108
1777.449,700.544,-4.52258
1777.79,700.944,-4.52777
1778.14,701.344,-4.53458
1778.48,701.744,-4.53977
1778.823,702.144,-4.54479
1779.17,702.544,-4.54741
1779.51,702.944,-4.55098
1779.85,703.344,-4.54931
1780.2,703.744,-4.55267
1780.539,704.144,-4.55544
1780.88,704.544,-4.55989
1781.23,704.944,-4.56148
1781.57,705.344,-4.56403
1781.92,705.744,-4.56607
1782.261,706.144,-4.5675
1782.606,706.544,-4.5704
1782.95,706.944,-4.57265
1783.3,707.344,-4.57296
1783.64,707.744,-4.57574
1783.99,708.144,-4.57735
1784.33,708.544,-4.58023
1784.679,708.944,-4.58196
1785.03,709.344,-4.58318
1785.37,709.744,-4.58523
1785.72,710.144,-4.58808
1786.06,710.544,-4.58867
1786.41,710.944,-4.591
1786.76,711.344,-4.59369
1787.1,711.744,-4.59602
1787.45,712.144,-4.59779
1787.79,712.544,-4.60111
1788.14,712.944,-4.60307
1788.49,713.344,-4.60582
1788.83,713.744,-4.60765
1789.18,714.144,-4.60983
1789.53,714.544,-4.61092
1789.87,714.944,-4.61277
1790.22,715.344,-4.61526
1790.568,715.744,-4.61574
1790.91,716.144,-4.61916
1791.261,716.544,-4.6209
1791.61,716.944,-4.62207
1791.96,717.344,-4.62293
1792.302,717.744,-4.62299
1792.65,718.144,-4.62537
1793,718.544,-4.62645
1793.34,718.944,-4.62736
1793.69,719.344,-4.62896
1794.039,719.744,-4.63103
1794.387,720.144,-4.63202
1794.74,720.544,-4.63303
1795.08,720.944,-4.63405
1795.43,721.344,-4.63324
1795.78,721.744,-4.63434
1796.13,722.144,-4.63509
1796.48,722.544,-4.63605
1796.83,722.944,-4.63737
1797.177,723.344,-4.63833
1797.53,723.744,-4.63908
1797.88,724.144,-4.64003
1798.224,724.544,-4.64001
1798.57,724.944,-4.64004
1798.923,725.344,-4.64018
1799.27,725.744,-4.64199
1799.622,726.144,-4.64312
1799.97,726.544,-4.64335
1800.324,726.944,-4.64398
1800.68,727.344,-4.64403
1801.03,727.744,-4.64533
1801.38,728.144,-4.64594
1801.73,728.544,-4.64601
1802.085,728.944,-4.64596
1802.44,729.344,-4.64702
1802.79,729.744,-4.64638
1803.14,730.144,-4.6482
1803.49,730.544,-4.648
1803.85,730.944,-4.64797
1804.2,731.344,-4.64756
1804.55,731.744,-4.64749
1804.91,732.144,-4.64899
1805.26,732.544,-4.64893
1805.62,732.944,-4.6502
1805.97,733.344,-4.64892
1806.33,733.744,-4.64909
1806.681,734.144,-4.65001
1807.04,734.544,-4.64987
1807.39,734.944,-4.65065
1807.75,735.344,-4.65006
1808.11,735.744,-4.65004
1808.46,736.144,-4.65224
1808.82,736.544,-4.64985
1809.18,736.944,-4.64999
1809.54,737.344,-4.65
1809.9,737.744,-4.65
1810.25,738.144,-4.64999
1810.61,738.544,-4.64979
1810.97,738.944,-4.65222
1811.33,739.344,-4.65206
1811.69,739.744,-4.6501
1812.05,740.144,-4.6508
1812.41,740.544,-4.65098
1812.76,740.944,-4.65099
1813.125,741.344,-4.65097
1813.49,741.744,-4.65195
1813.85,742.144,-4.65198
1814.21,742.544,-4.65194
1814.57,742.944,-4.65137
1814.93,743.344,-4.65016
1815.29,743.744,-4.65101
1815.65,744.144,-4.651
1816.02,744.544,-4.65097
1816.38,744.944,-4.65065
1816.74,745.344,-4.65019
1817.1,745.744,-4.651
1817.47,746.144,-4.651
1817.83,746.544,-4.65099
1818.19,746.944,-4.65091
1818.55,747.344,-4.6521
1818.918,747.744,-4.652
1819.28,748.144,-4.652
1819.64,748.544,-4.652
1820.01,748.944,-4.65197
1820.37,749.344,-4.65165
1820.74,749.744,-4.65102
1821.1,750.144,-4.651
1821.47,750.544,-4.65097
1821.83,750.944,-4.65011
1822.2,751.344,-4.65223
1822.56,751.744,-4.65202
1822.92,752.144,-4.652
1823.29,752.544,-4.652
1823.658,752.944,-4.65218
1824.02,753.344,-4.64984
1824.39,753.744,-4.64998
1824.759,754.144,-4.65
1825.13,754.544,-4.65
1825.49,754.944,-4.65001
1825.86,755.344,-4.65169
1826.229,755.744,-4.65196
1826.6,756.144,-4.652
1826.97,756.544,-4.652
1827.333,756.944,-4.65198
1827.7,757.344,-4.65199
1828.071,757.744,-4.64994
1828.44,758.144,-4.64999
1828.81,758.544,-4.65
1829.18,758.944,-4.64999
1829.55,759.344,-4.64989
1829.92,759.744,-4.65211
1830.291,760.144,-4.652
1830.66,760.544,-4.652
1831.03,760.944,-4.65202
1831.4,761.344,-4.65223
1831.77,761.744,-4.65013
1832.145,762.144,-4.65096
1832.52,762.544,-4.651
1832.886,762.944,-4.651
1833.258,763.344,-4.651
1833.63,763.744,-4.651
1834,764.144,-4.651
1834.37,764.544,-4.651
1834.74,764.944,-4.65102
1835.12,765.344,-4.65109
1835.49,765.744,-4.65103
1835.865,766.144,-4.65101
1836.24,766.544,-4.651
1836.61,766.944,-4.65099
1836.984,767.344,-4.65089
1837.36,767.744,-4.65185
1837.73,768.144,-4.65102
1838.1,768.544,-4.651
1838.48,768.944,-4.651
1838.85,769.344,-4.65091
1839.23,769.744,-4.65218
1839.6,770.144,-4.65091
1839.98,770.544,-4.65104
1840.35,770.944,-4.65148
1840.731,771.344,-4.65295
1841.11,771.744,-4.65298
1841.484,772.144,-4.65199
1841.86,772.544,-4.652
1842.24,772.944,-4.652
1842.62,773.344,-4.65197
1843,773.744,-4.65152
1843.38,774.144,-4.65103
1843.75,774.544,-4.65104
1844.13,774.944,-4.65132
1844.51,775.344,-4.65092
1844.89,775.744,-4.65101
1845.27,776.144,-4.651
1845.648,776.544,-4.651
1846.03,776.944,-4.651
1846.41,777.344,-4.651
1846.788,777.744,-4.651
1847.17,778.144,-4.651
1847.55,778.544,-4.65099
1847.93,778.944,-4.65092
1848.31,779.344,-4.65299
1848.69,779.744,-4.65098
1849.07,780.144,-4.65099
1849.45,780.544,-4.651
1849.84,780.944,-4.65103
1850.22,781.344,-4.6516
1850.6,781.744,-4.65197
1850.98,782.144,-4.65199
1851.37,782.544,-4.65196
1851.75,782.944,-4.65154
1852.131,783.344,-4.65111
1852.51,783.744,-4.651
1852.9,784.144,-4.651
1853.28,784.544,-4.651
1853.67,784.944,-4.651
1854.051,785.344,-4.651
1854.44,785.744,-4.651
1854.82,786.144,-4.65099
1855.21,786.544,-4.6509
1855.59,786.944,-4.6522
1855.98,787.344,-4.6509
1856.364,787.744,-4.65099
1856.75,788.144,-4.651
1857.14,788.544,-4.65097
1857.52,788.944,-4.65208
1857.91,789.344,-4.65097
1858.296,789.744,-4.651
1858.683,790.144,-4.651
1859.07,790.544,-4.65102
1859.46,790.944,-4.65183
1859.847,791.344,-4.65198
1860.24,791.744,-4.652
1860.62,792.144,-4.65202
1861.01,792.544,-4.65221
1861.401,792.944,-4.6498
1861.79,793.344,-4.64998
1862.18,793.744,-4.65
1862.57,794.144,-4.64999
1862.96,794.544,-4.64987
1863.35,794.944,-4.65219
1863.74,795.344,-4.65201
1864.131,795.744,-4.652
1864.52,796.144,-4.65199
1864.91,796.544,-4.65191
1865.3,796.944,-4.65001
1865.7,797.344,-4.65
1866.09,797.744,-4.65
1866.48,798.144,-4.65
1866.87,798.544,-4.64999
1867.27,798.944,-4.64985
1867.66,799.344,-4.65208
1868.05,799.744,-4.65202
1868.448,800.144,-4.6522
1868.84,800.544,-4.6499
1869.24,800.944,-4.65071
1869.63,801.344,-4.65098
1870.026,801.744,-4.651
1870.42,802.144,-4.65099
1870.82,802.544,-4.65089
1871.21,802.944,-4.65209
1871.61,803.344,-4.65201
1872,803.744,-4.652
1872.4,804.144,-4.65195
1872.79,804.544,-4.65109
1873.188,804.944,-4.64997
1873.58,805.344,-4.65111
1873.98,805.744,-4.65101
1874.38,806.144,-4.65108
1874.77,806.544,-4.64989
1875.17,806.944,-4.64992
1875.57,807.344,-4.65111
1875.97,807.744,-4.65101
1876.365,808.144,-4.65101
1876.76,808.544,-4.65107
1877.16,808.944,-4.64993
1877.56,809.344,-4.65054
1877.96,809.744,-4.65194
1878.36,810.144,-4.65199
1878.76,810.544,-4.65198
1879.16,810.944,-4.65173
1879.56,811.344,-4.65103
1879.959,811.744,-4.651
1880.358,812.144,-4.651
1880.76,812.544,-4.65098
1881.159,812.944,-4.65073
1881.56,813.344,-4.6499
1881.96,813.744,-4.65221
1882.36,814.144,-4.65202
1882.77,814.544,-4.65207
1883.16,814.944,-4.65089
1883.56,815.344,-4.65099
1883.91,815.644,-4.651