File: Non-charring/PMMA/Sandia/Sandia_TGA_Ar_10K_1.csv
Time,Temperature,Mass
[s],[K],[mg]
1209.15,307.216,-4.00E-03
1319.577,307.616,-6.05E-03
1345.77,308.016,-4.26E-03
1363.96,308.416,-3.98E-03
1377.88,308.816,-2.61E-03
1389.759,309.216,-9.98E-04
1400.19,309.616,-7.72E-04
1409.52,310.016,1.73E-08
1417.94,310.416,1.99E-03
1425.74,310.816,4.34E-06
1433.076,311.216,1.63E-03
1439.9,311.616,1.16E-03
1446.35,312.016,1.05E-03
1452.57,312.416,1.54E-03
1458.52,312.816,2.75E-03
1464.15,313.216,2.00E-03
1469.559,313.616,3.99E-03
1474.785,314.016,2.81E-03
1479.88,314.416,2.25E-03
1484.83,314.816,2.88E-03
1489.61,315.216,2.90E-03
1494.28,315.616,3.25E-03
1498.83,316.016,3.91E-03
1503.3,316.416,5.01E-03
1507.66,316.816,4.98E-03
1511.898,317.216,3.70E-03
1516.04,317.616,4.06E-03
1520.12,318.016,6.16E-03
1524.14,318.416,6.01E-03
1528.09,318.816,6.75E-03
1531.97,319.216,7.99E-03
1535.77,319.616,8.35E-03
1539.5,320.016,8.42E-03
1543.2,320.416,9.70E-03
1546.82,320.816,9.30E-03
1550.424,321.216,9.14E-03
1553.98,321.616,8.74E-03
1557.489,322.016,9.95E-03
1560.96,322.416,1.16E-02
1564.374,322.816,1.20E-02
1567.76,323.216,1.19E-02
1571.118,323.616,1.14E-02
1574.44,324.016,1.02E-02
1577.75,324.416,1.11E-02
1581,324.816,1.12E-02
1584.23,325.216,1.08E-02
1587.42,325.616,1.03E-02
1590.57,326.016,1.03E-02
1593.7,326.416,8.06E-03
1596.8,326.816,8.99E-03
1599.888,327.216,7.98E-03
1602.94,327.616,8.77E-03
1605.97,328.016,9.47E-03
1608.996,328.416,7.67E-03
1611.98,328.816,9.20E-03
1614.97,329.216,9.31E-03
1617.92,329.616,9.02E-03
1620.86,330.016,8.87E-03
1623.78,330.416,8.00E-03
1626.68,330.816,9.02E-03
1629.54,331.216,7.93E-03
1632.411,331.616,7.17E-03
1635.25,332.016,8.99E-03
1638.07,332.416,7.01E-03
1640.87,332.816,8.15E-03
1643.64,333.216,8.08E-03
1646.39,333.616,5.94E-03
1649.13,334.016,8.40E-03
1651.87,334.416,8.03E-03
1654.59,334.816,7.05E-03
1657.31,335.216,7.99E-03
1660.02,335.616,6.90E-03
1662.71,336.016,8.04E-03
1665.39,336.416,5.94E-03
1668.04,336.816,6.98E-03
1670.69,337.216,6.01E-03
1673.331,337.616,7.88E-03
1675.953,338.016,6.00E-03
1678.563,338.416,4.69E-03
1681.17,338.816,4.89E-03
1683.759,339.216,5.02E-03
1686.34,339.616,6.06E-03
1688.92,340.016,4.40E-03
1691.499,340.416,5.05E-03
1694.07,340.816,2.83E-03
1696.62,341.216,5.16E-03
1699.17,341.616,3.04E-03
1701.7,342.016,4.85E-03
1704.21,342.416,4.07E-03
1706.74,342.816,2.64E-03
1709.26,343.216,2.52E-03
1711.75,343.616,2.28E-03
1714.24,344.016,3.12E-03
1716.74,344.416,3.00E-03
1719.21,344.816,2.14E-03
1721.67,345.216,3.02E-03
1724.15,345.616,2.25E-03
1726.61,346.016,3.02E-03
1729.044,346.416,2.75E-03
1731.49,346.816,3.09E-03
1733.916,347.216,3.97E-03
1736.34,347.616,3.72E-03
1738.761,348.016,3.72E-03
1741.197,348.416,3.94E-03
1743.62,348.816,3.04E-03
1746.04,349.216,1.98E-03
1748.44,349.616,2.05E-03
1750.851,350.016,2.00E-03
1753.24,350.416,2.00E-03
1755.62,350.816,2.01E-03
1758,351.216,2.52E-03
1760.373,351.616,3.10E-03
1762.74,352.016,1.99E-03
1765.1,352.416,1.19E-03
1767.44,352.816,2.96E-03
1769.79,353.216,1.06E-03
1772.13,353.616,8.69E-04
1774.46,354.016,2.71E-03
1776.79,354.416,1.00E-03
1779.12,354.816,1.08E-03
1781.445,355.216,9.75E-04
1783.77,355.616,1.00E-03
1786.08,356.016,1.21E-03
1788.39,356.416,-1.03E-03
1790.691,356.816,1.20E-03
1792.98,357.216,-1.06E-03
1795.27,357.616,-3.45E-05
1797.549,358.016,-9.97E-04
1799.82,358.416,-1.67E-03
1802.085,358.816,-1.19E-03
1804.35,359.216,-2.00E-03
1806.61,359.616,-3.62E-03
1808.86,360.016,-2.90E-03
1811.1,360.416,-3.01E-03
1813.33,360.816,-4.01E-03
1815.56,361.216,-4.00E-03
1817.78,361.616,-3.13E-03
1819.995,362.016,-4.01E-03
1822.21,362.416,-4.00E-03
1824.44,362.816,-4.00E-03
1826.66,363.216,-3.93E-03
1828.87,363.616,-5.99E-03
1831.09,364.016,-6.79E-03
1833.3,364.416,-4.98E-03
1835.51,364.816,-5.00E-03
1837.719,365.216,-6.08E-03
1839.92,365.616,-6.24E-03
1842.11,366.016,-7.08E-03
1844.29,366.416,-5.99E-03
1846.46,366.816,-6.97E-03
1848.633,367.216,-7.84E-03
1850.79,367.616,-7.14E-03
1852.95,368.016,-7.00E-03
1855.11,368.416,-9.14E-03
1857.258,368.816,-8.02E-03
1859.41,369.216,-8.00E-03
1861.55,369.616,-8.59E-03
1863.69,370.016,-8.98E-03
1865.835,370.416,-9.00E-03
1867.98,370.816,-9.00E-03
1870.12,371.216,-8.89E-03
1872.25,371.616,-1.00E-02
1874.38,372.016,-1.00E-02
1876.5,372.416,-9.99E-03
1878.62,372.816,-8.78E-03
1880.733,373.216,-1.10E-02
1882.842,373.616,-1.09E-02
1884.95,374.016,-1.17E-02
1887.06,374.416,-1.10E-02
1889.17,374.816,-1.20E-02
1891.28,375.216,-1.20E-02
1893.39,375.616,-1.19E-02
1895.493,376.016,-1.20E-02
1897.6,376.416,-1.24E-02
1899.7,376.816,-1.30E-02
1901.79,377.216,-1.20E-02
1903.884,377.616,-1.20E-02
1905.97,378.016,-1.31E-02
1908.06,378.416,-1.30E-02
1910.15,378.816,-1.26E-02
1912.236,379.216,-1.30E-02
1914.32,379.616,-1.40E-02
1916.4,380.016,-1.40E-02
1918.49,380.416,-1.51E-02
1920.57,380.816,-1.43E-02
1922.64,381.216,-1.51E-02
1924.72,381.616,-1.50E-02
1926.79,382.016,-1.50E-02
1928.86,382.416,-1.72E-02
1930.93,382.816,-1.70E-02
1933,383.216,-1.50E-02
1935.07,383.616,-1.68E-02
1937.13,384.016,-1.70E-02
1939.2,384.416,-1.70E-02
1941.26,384.816,-1.69E-02
1943.32,385.216,-1.90E-02
1945.368,385.616,-1.90E-02
1947.42,386.016,-1.89E-02
1949.478,386.416,-1.70E-02
1951.54,386.816,-1.70E-02
1953.59,387.216,-1.71E-02
1955.65,387.616,-1.90E-02
1957.71,388.016,-1.90E-02
1959.771,388.416,-1.90E-02
1961.82,388.816,-1.90E-02
1963.87,389.216,-2.00E-02
1965.921,389.616,-2.00E-02
1967.964,390.016,-2.02E-02
1970.01,390.416,-1.80E-02
1972.05,390.816,-1.90E-02
1974.09,391.216,-1.90E-02
1976.13,391.616,-2.00E-02
1978.16,392.016,-2.00E-02
1980.204,392.416,-2.00E-02
1982.24,392.816,-2.05E-02
1984.27,393.216,-2.10E-02
1986.29,393.616,-2.10E-02
1988.32,394.016,-2.10E-02
1990.35,394.416,-2.10E-02
1992.37,394.816,-2.13E-02
1994.394,395.216,-2.20E-02
1996.407,395.616,-2.20E-02
1998.43,396.016,-2.20E-02
2000.45,396.416,-2.30E-02
2002.46,396.816,-2.30E-02
2004.477,397.216,-2.30E-02
2006.496,397.616,-2.30E-02
2008.52,398.016,-2.30E-02
2010.534,398.416,-2.37E-02
2012.55,398.816,-2.40E-02
2014.56,399.216,-2.40E-02
2016.576,399.616,-2.40E-02
2018.58,400.016,-2.40E-02
2020.59,400.416,-2.51E-02
2022.6,400.816,-2.50E-02
2024.6,401.216,-2.50E-02
2026.599,401.616,-2.50E-02
2028.6,402.016,-2.50E-02
2030.595,402.416,-2.50E-02
2032.593,402.816,-2.58E-02
2034.59,403.216,-2.70E-02
2036.595,403.616,-2.70E-02
2038.593,404.016,-2.70E-02
2040.59,404.416,-2.70E-02
2042.59,404.816,-2.70E-02
2044.59,405.216,-2.70E-02
2046.58,405.616,-2.70E-02
2048.57,406.016,-2.70E-02
2050.55,406.416,-2.70E-02
2052.54,406.816,-2.92E-02
2054.52,407.216,-2.90E-02
2056.5,407.616,-2.90E-02
2058.48,408.016,-2.90E-02
2060.46,408.416,-2.90E-02
2062.44,408.816,-2.90E-02
2064.426,409.216,-2.90E-02
2066.403,409.616,-2.90E-02
2068.374,410.016,-2.91E-02
2070.34,410.416,-3.10E-02
2072.32,410.816,-3.21E-02
2074.3,411.216,-3.20E-02
2076.26,411.616,-3.20E-02
2078.24,412.016,-3.20E-02
2080.22,412.416,-3.28E-02
2082.19,412.816,-3.30E-02
2084.16,413.216,-3.30E-02
2086.12,413.616,-3.30E-02
2088.09,414.016,-3.30E-02
2090.06,414.416,-3.30E-02
2092.02,414.816,-3.41E-02
2093.98,415.216,-3.38E-02
2095.95,415.616,-3.60E-02
2097.91,416.016,-3.70E-02
2099.87,416.416,-3.70E-02
2101.83,416.816,-3.70E-02
2103.78,417.216,-3.70E-02
2105.74,417.616,-3.89E-02
2107.7,418.016,-3.90E-02
2109.65,418.416,-4.07E-02
2111.61,418.816,-4.10E-02
2113.572,419.216,-4.10E-02
2115.54,419.616,-4.10E-02
2117.5,420.016,-4.10E-02
2119.45,420.416,-4.10E-02
2121.408,420.816,-4.10E-02
2123.36,421.216,-4.08E-02
2125.32,421.616,-4.30E-02
2127.27,422.016,-4.30E-02
2129.22,422.416,-4.30E-02
2131.16,422.816,-4.30E-02
2133.12,423.216,-4.40E-02
2135.06,423.616,-4.40E-02
2137.02,424.016,-4.49E-02
2138.97,424.416,-4.60E-02
2140.93,424.816,-4.60E-02
2142.88,425.216,-4.60E-02
2144.83,425.616,-4.60E-02
2146.78,426.016,-4.60E-02
2148.73,426.416,-4.90E-02
2150.68,426.816,-4.90E-02
2152.64,427.216,-4.89E-02
2154.59,427.616,-5.10E-02
2156.547,428.016,-5.10E-02
2158.5,428.416,-5.20E-02
2160.45,428.816,-5.20E-02
2162.403,429.216,-5.19E-02
2164.35,429.616,-5.30E-02
2166.29,430.016,-5.30E-02
2168.24,430.416,-5.35E-02
2170.18,430.816,-5.40E-02
2172.132,431.216,-5.50E-02
2174.08,431.616,-5.50E-02
2176.03,432.016,-5.55E-02
2177.98,432.416,-5.60E-02
2179.93,432.816,-5.60E-02
2181.888,433.216,-5.70E-02
2183.84,433.616,-5.69E-02
2185.791,434.016,-5.80E-02
2187.74,434.416,-5.90E-02
2189.7,434.816,-5.90E-02
2191.65,435.216,-6.11E-02
2193.6,435.616,-6.20E-02
2195.55,436.016,-6.20E-02
2197.51,436.416,-6.25E-02
2199.46,436.816,-6.40E-02
2201.41,437.216,-6.48E-02
2203.36,437.616,-6.70E-02
2205.32,438.016,-6.70E-02
2207.265,438.416,-6.81E-02
2209.22,438.816,-6.78E-02
2211.17,439.216,-7.00E-02
2213.13,439.616,-7.11E-02
2215.08,440.016,-7.09E-02
2217.03,440.416,-7.20E-02
2218.99,440.816,-7.30E-02
2220.95,441.216,-7.41E-02
2222.9,441.616,-7.50E-02
2224.85,442.016,-7.69E-02
2226.8,442.416,-7.71E-02
2228.75,442.816,-7.90E-02
2230.7,443.216,-8.02E-02
2232.65,443.616,-8.10E-02
2234.6,444.016,-8.21E-02
2236.554,444.416,-8.43E-02
2238.51,444.816,-8.56E-02
2240.46,445.216,-8.69E-02
2242.41,445.616,-8.81E-02
2244.36,446.016,-8.94E-02
2246.31,446.416,-9.09E-02
2248.26,446.816,-9.30E-02
2250.21,447.216,-9.31E-02
2252.16,447.616,-9.49E-02
2254.12,448.016,-9.69E-02
2256.08,448.416,-9.79E-02
2258.05,448.816,-0.1001
2260,449.216,-0.10221
2261.97,449.616,-0.10177
2263.93,450.016,-0.10694
2265.89,450.416,-0.10804
2267.85,450.816,-0.10886
2269.81,451.216,-0.1116
2271.78,451.616,-0.11198
2273.73,452.016,-0.11423
2275.68,452.416,-0.11599
2277.64,452.816,-0.11783
2279.59,453.216,-0.11901
2281.54,453.616,-0.12098
2283.5,454.016,-0.12317
2285.45,454.416,-0.12472
2287.4,454.816,-0.12603
2289.36,455.216,-0.12734
2291.322,455.616,-0.13017
2293.28,456.016,-0.12987
2295.24,456.416,-0.13305
2297.19,456.816,-0.13438
2299.15,457.216,-0.13596
2301.11,457.616,-0.1389
2303.07,458.016,-0.13891
2305.03,458.416,-0.14079
2306.99,458.816,-0.14066
2308.94,459.216,-0.142
2310.9,459.616,-0.14345
2312.859,460.016,-0.14481
2314.815,460.416,-0.14702
2316.777,460.816,-0.149
2318.73,461.216,-0.15224
2320.69,461.616,-0.15413
2322.65,462.016,-0.15488
2324.61,462.416,-0.15702
2326.57,462.816,-0.15924
2328.53,463.216,-0.15996
2330.5,463.616,-0.16193
2332.46,464.016,-0.16306
2334.43,464.416,-0.16662
2336.4,464.816,-0.16857
2338.38,465.216,-0.16898
2340.345,465.616,-0.17123
2342.31,466.016,-0.17262
2344.27,466.416,-0.17392
2346.24,466.816,-0.17521
2348.2,467.216,-0.17706
2350.16,467.616,-0.17914
2352.13,468.016,-0.17895
2354.091,468.416,-0.18123
2356.06,468.816,-0.18313
2358.03,469.216,-0.18407
2360,469.616,-0.1851
2361.96,470.016,-0.187
2363.93,470.416,-0.1883
2365.89,470.816,-0.1889
2367.86,471.216,-0.19115
2369.82,471.616,-0.19244
2371.79,472.016,-0.19382
2373.76,472.416,-0.196
2375.733,472.816,-0.19604
2377.7,473.216,-0.19806
2379.675,473.616,-0.19989
2381.65,474.016,-0.20109
2383.63,474.416,-0.20199
2385.6,474.816,-0.20456
2387.574,475.216,-0.20498
2389.54,475.616,-0.20723
2391.53,476.016,-0.20865
2393.5,476.416,-0.20994
2395.47,476.816,-0.2111
2397.45,477.216,-0.212
2399.42,477.616,-0.2129
2401.4,478.016,-0.21413
2403.378,478.416,-0.21606
2405.35,478.816,-0.21814
2407.34,479.216,-0.21801
2409.318,479.616,-0.21989
2411.298,480.016,-0.22098
2413.28,480.416,-0.22094
2415.27,480.816,-0.22217
2417.26,481.216,-0.22405
2419.26,481.616,-0.22501
2421.25,482.016,-0.22525
2423.23,482.416,-0.227
2425.22,482.816,-0.22864
2427.207,483.216,-0.23005
2429.19,483.616,-0.23113
2431.18,484.016,-0.23205
2433.16,484.416,-0.23301
2435.15,484.816,-0.2333
2437.14,485.216,-0.23379
2439.13,485.616,-0.236
2441.121,486.016,-0.23603
2443.11,486.416,-0.23817
2445.111,486.816,-0.238
2447.11,487.216,-0.23803
2449.104,487.616,-0.24017
2451.1,488.016,-0.24
2453.1,488.416,-0.24043
2455.1,488.816,-0.24201
2457.09,489.216,-0.24195
2459.09,489.616,-0.243
2461.08,490.016,-0.24357
2463.08,490.416,-0.244
2465.08,490.816,-0.244
2467.08,491.216,-0.24403
2469.08,491.616,-0.24502
2471.07,492.016,-0.245
2473.07,492.416,-0.2449
2475.07,492.816,-0.24599
2477.07,493.216,-0.24601
2479.08,493.616,-0.24709
2481.08,494.016,-0.247
2483.09,494.416,-0.24701
2485.1,494.816,-0.24809
2487.111,495.216,-0.248
2489.12,495.616,-0.24794
2491.13,496.016,-0.24898
2493.14,496.416,-0.249
2495.14,496.816,-0.249
2497.15,497.216,-0.24903
2499.16,497.616,-0.25
2501.166,498.016,-0.25
2503.17,498.416,-0.25
2505.18,498.816,-0.24998
2507.196,499.216,-0.25194
2509.21,499.616,-0.252
2511.23,500.016,-0.252
2513.25,500.416,-0.252
2515.266,500.816,-0.252
2517.28,501.216,-0.252
2519.3,501.616,-0.25179
2521.32,502.016,-0.25399
2523.34,502.416,-0.254
2525.35,502.816,-0.254
2527.362,503.216,-0.254
2529.38,503.616,-0.254
2531.39,504.016,-0.254
2533.41,504.416,-0.254
2535.43,504.816,-0.254
2537.45,505.216,-0.25404
2539.48,505.616,-0.25595
2541.51,506.016,-0.256
2543.532,506.416,-0.256
2545.56,506.816,-0.256
2547.58,507.216,-0.256
2549.607,507.616,-0.256
2551.63,508.016,-0.256
2553.654,508.416,-0.256
2555.68,508.816,-0.256
2557.71,509.216,-0.25598
2559.74,509.616,-0.25798
2561.76,510.016,-0.258
2563.78,510.416,-0.258
2565.81,510.816,-0.258
2567.83,511.216,-0.258
2569.854,511.616,-0.258
2571.876,512.016,-0.258
2573.907,512.416,-0.258
2575.94,512.816,-0.258
2577.97,513.216,-0.258
2580,513.616,-0.25781
2582.04,514.016,-0.26001
2584.07,514.416,-0.26003
2586.11,514.816,-0.26101
2588.15,515.216,-0.261
2590.18,515.616,-0.26103
2592.213,516.016,-0.262
2594.25,516.416,-0.2642
2596.29,516.816,-0.264
2598.34,517.216,-0.26393
2600.373,517.616,-0.26498
2602.41,518.016,-0.265
2604.46,518.416,-0.265
2606.5,518.816,-0.26496
2608.548,519.216,-0.26601
2610.59,519.616,-0.26603
2612.63,520.016,-0.26698
2614.68,520.416,-0.26703
2616.726,520.816,-0.26801
2618.77,521.216,-0.268
2620.818,521.616,-0.26799
2622.86,522.016,-0.26908
2624.91,522.416,-0.26898
2626.95,522.816,-0.27101
2629,523.216,-0.271
2631.054,523.616,-0.271
2633.103,524.016,-0.271
2635.16,524.416,-0.271
2637.22,524.816,-0.27096
2639.271,525.216,-0.27295
2641.34,525.616,-0.273
2643.396,526.016,-0.273
2645.46,526.416,-0.273
2647.53,526.816,-0.27299
2649.59,527.216,-0.27452
2651.66,527.616,-0.275
2653.72,528.016,-0.27503
2655.783,528.416,-0.27599
2657.844,528.816,-0.27599
2659.9,529.216,-0.27694
2661.96,529.616,-0.27699
2664.024,530.016,-0.27783
2666.09,530.416,-0.27799
2668.155,530.816,-0.2787
2670.22,531.216,-0.279
2672.29,531.616,-0.27889
2674.36,532.016,-0.28
2676.42,532.416,-0.27991
2678.48,532.816,-0.28099
2680.55,533.216,-0.28093
2682.62,533.616,-0.28199
2684.69,534.016,-0.28195
2686.76,534.416,-0.28298
2688.834,534.816,-0.28311
2690.91,535.216,-0.28406
2692.98,535.616,-0.28599
2695.05,536.016,-0.286
2697.12,536.416,-0.28595
2699.2,536.816,-0.28802
2701.28,537.216,-0.28799
2703.36,537.616,-0.29021
2705.442,538.016,-0.29085
2707.52,538.416,-0.29093
2709.61,538.816,-0.29201
2711.69,539.216,-0.29297
2713.77,539.616,-0.29373
2715.861,540.016,-0.29508
2717.943,540.416,-0.29489
2720.03,540.816,-0.29601
2722.11,541.216,-0.29707
2724.2,541.616,-0.29909
2726.29,542.016,-0.29898
2728.37,542.416,-0.30104
2730.462,542.816,-0.301
2732.55,543.216,-0.30099
2734.64,543.616,-0.303
2736.74,544.016,-0.30498
2738.832,544.416,-0.305
2740.93,544.816,-0.30498
2743.02,545.216,-0.30645
2745.123,545.616,-0.30797
2747.22,546.016,-0.30909
2749.31,546.416,-0.3109
2751.41,546.816,-0.31104
2753.51,547.216,-0.31302
2755.61,547.616,-0.31388
2757.71,548.016,-0.31602
2759.81,548.416,-0.31688
2761.92,548.816,-0.31796
2764.02,549.216,-0.32016
2766.117,549.616,-0.32202
2768.22,550.016,-0.32289
2770.33,550.416,-0.32498
2772.44,550.816,-0.32587
2774.55,551.216,-0.327
2776.66,551.616,-0.32913
2778.77,552.016,-0.32998
2780.88,552.416,-0.33194
2783,552.816,-0.33409
2785.11,553.216,-0.33417
2787.23,553.616,-0.33494
2789.34,554.016,-0.33766
2791.45,554.416,-0.33896
2793.57,554.816,-0.34212
2795.68,555.216,-0.34236
2797.79,555.616,-0.34559
2799.92,556.016,-0.3469
2802.04,556.416,-0.34888
2804.16,556.816,-0.35093
2806.28,557.216,-0.35285
2808.4,557.616,-0.35439
2810.52,558.016,-0.35597
2812.63,558.416,-0.3592
2814.75,558.816,-0.361
2816.87,559.216,-0.36195
2818.99,559.616,-0.36503
2821.11,560.016,-0.36663
2823.23,560.416,-0.36713
2825.358,560.816,-0.36879
2827.48,561.216,-0.37205
2829.6,561.616,-0.37382
2831.724,562.016,-0.37582
2833.848,562.416,-0.37802
2835.97,562.816,-0.38096
2838.099,563.216,-0.38387
2840.23,563.616,-0.38481
2842.359,564.016,-0.38801
2844.489,564.416,-0.39114
2846.63,564.816,-0.39311
2848.755,565.216,-0.39493
2850.89,565.616,-0.39822
2853.01,566.016,-0.39999
2855.15,566.416,-0.40203
2857.28,566.816,-0.40481
2859.411,567.216,-0.40714
2861.553,567.616,-0.409
2863.686,568.016,-0.41175
2865.82,568.416,-0.41419
2867.958,568.816,-0.4178
2870.1,569.216,-0.42116
2872.24,569.616,-0.4226
2874.37,570.016,-0.4255
2876.51,570.416,-0.42804
2878.64,570.816,-0.43097
2880.78,571.216,-0.43401
2882.92,571.616,-0.43696
2885.05,572.016,-0.43935
2887.19,572.416,-0.44108
2889.339,572.816,-0.44359
2891.48,573.216,-0.44701
2893.62,573.616,-0.44932
2895.76,574.016,-0.45303
2897.91,574.416,-0.4558
2900.05,574.816,-0.45927
2902.19,575.216,-0.46188
2904.33,575.616,-0.46449
2906.46,576.016,-0.46601
2908.61,576.416,-0.46875
2910.75,576.816,-0.47199
2912.88,577.216,-0.47563
2915.01,577.616,-0.47907
2917.16,578.016,-0.48156
2919.3,578.416,-0.48448
2921.44,578.816,-0.48781
2923.58,579.216,-0.4908
2925.73,579.616,-0.49499
2927.88,580.016,-0.49794
2930.03,580.416,-0.50112
2932.176,580.816,-0.50379
2934.32,581.216,-0.50859
2936.47,581.616,-0.51173
2938.61,582.016,-0.51623
2940.762,582.416,-0.51901
2942.91,582.816,-0.52296
2945.05,583.216,-0.5263
2947.2,583.616,-0.53063
2949.35,584.016,-0.53526
2951.49,584.416,-0.53892
2953.63,584.816,-0.54247
2955.777,585.216,-0.54601
2957.916,585.616,-0.55038
2960.05,586.016,-0.55409
2962.2,586.416,-0.55853
2964.35,586.816,-0.56136
2966.51,587.216,-0.56586
2968.66,587.616,-0.56906
2970.82,588.016,-0.5732
2972.99,588.416,-0.5765
2975.15,588.816,-0.58051
2977.32,589.216,-0.584
2979.483,589.616,-0.58671
2981.65,590.016,-0.59021
2983.81,590.416,-0.5949
2985.97,590.816,-0.59996
2988.132,591.216,-0.60398
2990.289,591.616,-0.60796
2992.46,592.016,-0.61327
2994.62,592.416,-0.6176
2996.78,592.816,-0.62207
2998.94,593.216,-0.62598
3001.1,593.616,-0.6316
3003.26,594.016,-0.63735
3005.41,594.416,-0.64278
3007.57,594.816,-0.64774
3009.73,595.216,-0.65193
3011.895,595.616,-0.65856
3014.07,596.016,-0.66426
3016.23,596.416,-0.66977
3018.4,596.816,-0.67571
3020.57,597.216,-0.68105
3022.73,597.616,-0.68641
3024.9,598.016,-0.69269
3027.07,598.416,-0.69967
3029.241,598.816,-0.70354
3031.41,599.216,-0.70926
3033.585,599.616,-0.71578
3035.75,600.016,-0.7232
3037.92,600.416,-0.72795
3040.1,600.816,-0.73543
3042.27,601.216,-0.7433
3044.45,601.616,-0.75069
3046.62,602.016,-0.75609
3048.8,602.416,-0.7632
3050.98,602.816,-0.77064
3053.15,603.216,-0.77762
3055.33,603.616,-0.78592
3057.51,604.016,-0.79317
3059.69,604.416,-0.79984
3061.87,604.816,-0.80769
3064.06,605.216,-0.8154
3066.234,605.616,-0.82353
3068.42,606.016,-0.83265
3070.6,606.416,-0.8413
3072.78,606.816,-0.85011
3074.95,607.216,-0.85908
3077.13,607.616,-0.86808
3079.32,608.016,-0.87682
3081.492,608.416,-0.88656
3083.67,608.816,-0.89651
3085.85,609.216,-0.9056
3088.03,609.616,-0.91515
3090.21,610.016,-0.92946
3092.38,610.416,-0.94397
3094.57,610.816,-0.95824
3096.753,611.216,-0.96902
3098.94,611.616,-0.97896
3101.13,612.016,-0.98814
3103.32,612.416,-0.99989
3105.51,612.816,-1.00921
3107.697,613.216,-1.02352
3109.89,613.616,-1.03858
3112.08,614.016,-1.05329
3114.26,614.416,-1.06586
3116.46,614.816,-1.07942
3118.64,615.216,-1.09395
3120.84,615.616,-1.10869
3123.03,616.016,-1.12228
3125.22,616.416,-1.13577
3127.41,616.816,-1.15035
3129.59,617.216,-1.16508
3131.79,617.616,-1.17962
3133.98,618.016,-1.19525
3136.18,618.416,-1.21163
3138.37,618.816,-1.22783
3140.57,619.216,-1.24418
3142.773,619.616,-1.26152
3144.97,620.016,-1.27889
3147.18,620.416,-1.29721
3149.38,620.816,-1.3153
3151.58,621.216,-1.33389
3153.78,621.616,-1.35224
3155.98,622.016,-1.37022
3158.18,622.416,-1.38883
3160.383,622.816,-1.4083
3162.59,623.216,-1.4293
3164.79,623.616,-1.45037
3166.99,624.016,-1.47036
3169.19,624.416,-1.49026
3171.39,624.816,-1.51129
3173.59,625.216,-1.53435
3175.791,625.616,-1.55659
3178,626.016,-1.57845
3180.2,626.416,-1.59942
3182.42,626.816,-1.62268
3184.62,627.216,-1.64572
3186.84,627.616,-1.66991
3189.04,628.016,-1.69286
3191.256,628.416,-1.71706
3193.47,628.816,-1.74145
3195.68,629.216,-1.76516
3197.89,629.616,-1.79042
3200.1,630.016,-1.81576
3202.31,630.416,-1.84162
3204.52,630.816,-1.86518
3206.73,631.216,-1.89129
3208.95,631.616,-1.91794
3211.15,632.016,-1.94458
3213.37,632.416,-1.97148
3215.58,632.816,-1.99937
3217.797,633.216,-2.027
3220.01,633.616,-2.05553
3222.222,634.016,-2.08386
3224.44,634.416,-2.1126
3226.65,634.816,-2.13895
3228.87,635.216,-2.1684
3231.081,635.616,-2.19706
3233.3,636.016,-2.22629
3235.52,636.416,-2.25443
3237.726,636.816,-2.28463
3239.94,637.216,-2.31482
3242.16,637.616,-2.34523
3244.38,638.016,-2.37537
3246.6,638.416,-2.40582
3248.82,638.816,-2.43769
3251.04,639.216,-2.46543
3253.263,639.616,-2.49689
3255.49,640.016,-2.52807
3257.709,640.416,-2.56014
3259.93,640.816,-2.59271
3262.15,641.216,-2.62375
3264.37,641.616,-2.65501
3266.598,642.016,-2.68774
3268.82,642.416,-2.72014
3271.04,642.816,-2.75233
3273.255,643.216,-2.78411
3275.47,643.616,-2.8138
3277.69,644.016,-2.84707
3279.903,644.416,-2.88152
3282.12,644.816,-2.91552
3284.334,645.216,-2.94831
3286.55,645.616,-2.98096
3288.76,646.016,-3.01217
3290.98,646.416,-3.04544
3293.202,646.816,-3.07925
3295.42,647.216,-3.11296
3297.64,647.616,-3.14283
3299.86,648.016,-3.17663
3302.08,648.416,-3.20969
3304.305,648.816,-3.24336
3306.53,649.216,-3.27576
3308.76,649.616,-3.30779
3310.99,650.016,-3.34049
3313.21,650.416,-3.37298
3315.44,650.816,-3.40438
3317.66,651.216,-3.4356
3319.88,651.616,-3.46697
3322.11,652.016,-3.4966
3324.35,652.416,-3.52807
3326.58,652.816,-3.55849
3328.815,653.216,-3.59004
3331.05,653.616,-3.62092
3333.28,654.016,-3.64871
3335.514,654.416,-3.67853
3337.74,654.816,-3.70844
3339.972,655.216,-3.73751
3342.207,655.616,-3.76669
3344.44,656.016,-3.79458
3346.67,656.416,-3.8197
3348.9,656.816,-3.84728
3351.13,657.216,-3.87276
3353.35,657.616,-3.90074
3355.58,658.016,-3.92779
3357.8,658.416,-3.95462
3360.03,658.816,-3.98059
3362.26,659.216,-4.00654
3364.49,659.616,-4.03165
3366.73,660.016,-4.05672
3368.95,660.416,-4.07857
3371.18,660.816,-4.10122
3373.41,661.216,-4.12469
3375.64,661.616,-4.14693
3377.88,662.016,-4.16926
3380.103,662.416,-4.19042
3382.34,662.816,-4.21188
3384.57,663.216,-4.23237
3386.79,663.616,-4.25123
3389.02,664.016,-4.27058
3391.251,664.416,-4.29021
3393.48,664.816,-4.3071
3395.7,665.216,-4.32506
3397.93,665.616,-4.3429
3400.164,666.016,-4.35946
3402.39,666.416,-4.37707
3404.62,666.816,-4.39457
3406.842,667.216,-4.41113
3409.074,667.616,-4.42615
3411.3,668.016,-4.44106
3413.52,668.416,-4.45574
3415.74,668.816,-4.47071
3417.97,669.216,-4.4845
3420.19,669.616,-4.49731
3422.42,670.016,-4.51135
3424.64,670.416,-4.52449
3426.88,670.816,-4.53593
3429.11,671.216,-4.55084
3431.35,671.616,-4.56128
3433.58,672.016,-4.57159
3435.81,672.416,-4.58028
3438.042,672.816,-4.58978
3440.27,673.216,-4.59811
3442.5,673.616,-4.60668
3444.72,674.016,-4.61588
3446.95,674.416,-4.62459
3449.18,674.816,-4.63446
3451.41,675.216,-4.64414
3453.64,675.616,-4.65245
3455.87,676.016,-4.66164
3458.1,676.416,-4.66875
3460.34,676.816,-4.67796
3462.57,677.216,-4.68678
3464.79,677.616,-4.69339
3467.028,678.016,-4.70231
3469.26,678.416,-4.70979
3471.5,678.816,-4.71813
3473.72,679.216,-4.72451
3475.965,679.616,-4.73206
3478.2,680.016,-4.73778
3480.43,680.416,-4.74306
3482.66,680.816,-4.74813
3484.9,681.216,-4.75284
3487.13,681.616,-4.75854
3489.363,682.016,-4.76153
3491.601,682.416,-4.76705
3493.84,682.816,-4.77177
3496.08,683.216,-4.77513
3498.33,683.616,-4.77918
3500.574,684.016,-4.78405
3502.815,684.416,-4.78587
3505.05,684.816,-4.79038
3507.29,685.216,-4.79541
3509.544,685.616,-4.79899
3511.785,686.016,-4.80088
3514.029,686.416,-4.80502
3516.276,686.816,-4.80807
3518.52,687.216,-4.81294
3520.77,687.616,-4.8165
3523.02,688.016,-4.81967
3525.273,688.416,-4.82317
3527.53,688.816,-4.82599
3529.78,689.216,-4.828
3532.03,689.616,-4.831
3534.28,690.016,-4.83297
3536.54,690.416,-4.836
3538.8,690.816,-4.83853
3541.05,691.216,-4.84119
3543.31,691.616,-4.84237
3545.58,692.016,-4.84497
3547.84,692.416,-4.8468
3550.1,692.816,-4.84998
3552.36,693.216,-4.85196
3554.63,693.616,-4.85396
3556.893,694.016,-4.85589
3559.16,694.416,-4.85875
3561.42,694.816,-4.86044
3563.69,695.216,-4.862
3565.97,695.616,-4.86399
3568.26,696.016,-4.86577
3570.53,696.416,-4.86685
3572.8,696.816,-4.87022
3575.08,697.216,-4.86955
3577.35,697.616,-4.87
3579.62,698.016,-4.87163
3581.89,698.416,-4.87312
3584.16,698.816,-4.87399
3586.44,699.216,-4.87508
3588.73,699.616,-4.87396
3591.01,700.016,-4.87581
3593.292,700.416,-4.87716
3595.57,700.816,-4.87804
3597.86,701.216,-4.87996
3600.14,701.616,-4.878
3602.43,702.016,-4.88
3604.71,702.416,-4.88216
3607.008,702.816,-4.8831
3609.3,703.216,-4.88409
3611.59,703.616,-4.88504
3613.87,704.016,-4.88502
3616.16,704.416,-4.88597
3618.45,704.816,-4.8871
3620.74,705.216,-4.88729
3623.043,705.616,-4.88794
3625.338,706.016,-4.89
3627.64,706.416,-4.89
3629.94,706.816,-4.89
3632.241,707.216,-4.89096
3634.536,707.616,-4.892
3636.85,708.016,-4.892
3639.15,708.416,-4.892
3641.46,708.816,-4.892
3643.77,709.216,-4.892
3646.08,709.616,-4.8931
3648.39,710.016,-4.894
3650.7,710.416,-4.894
3653.01,710.816,-4.894
3655.31,711.216,-4.894
3657.62,711.616,-4.894
3659.93,712.016,-4.89402
3662.24,712.416,-4.89277
3664.56,712.816,-4.89399
3666.88,713.216,-4.894
3669.195,713.616,-4.89401
3671.51,714.016,-4.893
3673.83,714.416,-4.893
3676.15,714.816,-4.89231
3678.47,715.216,-4.892
3680.79,715.616,-4.89198
3683.13,716.016,-4.89103
3685.46,716.416,-4.89102
3687.79,716.816,-4.89298
3690.12,717.216,-4.893
3692.45,717.616,-4.89213
3694.78,718.016,-4.892
3697.12,718.416,-4.89189
3699.456,718.816,-4.89301
3701.8,719.216,-4.893
3704.136,719.616,-4.893
3706.476,720.016,-4.89296
3708.81,720.416,-4.894
3711.165,720.816,-4.894
3713.51,721.216,-4.894
3715.863,721.616,-4.89402
3718.22,722.016,-4.89394
3720.57,722.416,-4.894
3722.91,722.816,-4.89399
3725.26,723.216,-4.8951
3727.61,723.616,-4.895
3729.96,724.016,-4.895
3732.31,724.416,-4.89498
3734.67,724.816,-4.89403
3737.03,725.216,-4.89498
3739.39,725.616,-4.895
3741.75,726.016,-4.895
3744.12,726.416,-4.895
3746.484,726.816,-4.89592
3748.845,727.216,-4.89496
3751.21,727.616,-4.895
3753.58,728.016,-4.895
3755.937,728.416,-4.89578
3758.3,728.816,-4.89499
3760.67,729.216,-4.895
3763.05,729.616,-4.89505
3765.42,730.016,-4.89694
3767.8,730.416,-4.897
3770.181,730.816,-4.897
3772.56,731.216,-4.897
3774.93,731.616,-4.897
3777.31,732.016,-4.897
3779.69,732.416,-4.897
3782.06,732.816,-4.897
3784.44,733.216,-4.89694
3786.828,733.616,-4.89901
3789.22,734.016,-4.899
3791.6,734.416,-4.899
3793.998,734.816,-4.899
3796.39,735.216,-4.899
3798.79,735.616,-4.899
3801.19,736.016,-4.899
3803.59,736.416,-4.899
3805.99,736.816,-4.899
3808.39,737.216,-4.89999
3810.792,737.616,-4.9
3813.195,738.016,-4.9
3815.6,738.416,-4.89896
3818,738.816,-4.899
3820.4,739.216,-4.89899
3822.807,739.616,-4.89703
3825.21,740.016,-4.897
3827.61,740.416,-4.897
3830.02,740.816,-4.897
3832.42,741.216,-4.89718
3834.825,741.616,-4.899
3837.231,742.016,-4.89687
3839.64,742.416,-4.897
3842.06,742.816,-4.897
3844.47,743.216,-4.897
3846.888,743.616,-4.897
3849.3,744.016,-4.897
3851.71,744.416,-4.89652
3854.121,744.816,-4.895
3856.53,745.216,-4.895
3858.95,745.616,-4.895
3861.36,746.016,-4.89565
3863.772,746.416,-4.89701
3866.184,746.816,-4.89478
3868.6,747.216,-4.895
3871.02,747.616,-4.895
3873.44,748.016,-4.8949
3875.85,748.416,-4.89601
3878.28,748.816,-4.896
3880.72,749.216,-4.896
3883.15,749.616,-4.896
3885.54,750.016,-4.896
3887.98,750.416,-4.89683
3890.42,750.816,-4.897
3892.84,751.216,-4.897
3895.26,751.616,-4.89801
3897.69,752.016,-4.898
3900.12,752.416,-4.898
3902.55,752.816,-4.898
3904.98,753.216,-4.8981
3907.413,753.616,-4.899
3909.85,754.016,-4.899
3912.28,754.416,-4.89872
3914.73,754.816,-4.898
3917.169,755.216,-4.89809
3919.61,755.616,-4.89809
3922.05,756.016,-4.898
3924.492,756.416,-4.89732
3926.94,756.816,-4.89699
3929.38,757.216,-4.89804
3931.833,757.616,-4.898
3934.28,758.016,-4.898
3936.73,758.416,-4.89697
3939.18,758.816,-4.897
3941.634,759.216,-4.89809
3944.08,759.616,-4.898
3946.54,760.016,-4.898
3948.99,760.416,-4.898
3951.44,760.816,-4.89797
3953.895,761.216,-4.89702
3956.35,761.616,-4.897
3958.82,762.016,-4.897
3961.28,762.416,-4.897
3963.74,762.816,-4.89701
3966.21,763.216,-4.89599
3968.66,763.616,-4.89602
3971.12,764.016,-4.89586
3973.581,764.416,-4.896
3976.04,764.816,-4.89597
3978.5,765.216,-4.89502
3980.96,765.616,-4.895
3983.42,766.016,-4.895
3985.88,766.416,-4.89598
3988.34,766.816,-4.89496
3990.804,767.216,-4.895
3993.267,767.616,-4.895
3995.73,768.016,-4.895
3998.18,768.416,-4.89481
4000.64,768.816,-4.89701
4003.095,769.216,-4.897
4005.55,769.616,-4.897
4008.006,770.016,-4.897
4010.469,770.416,-4.89604
4012.94,770.816,-4.896
4015.4,771.216,-4.896
4017.87,771.616,-4.896
4020.34,772.016,-4.896
4022.8,772.416,-4.896
4025.26,772.816,-4.896
4027.73,773.216,-4.896
4030.18,773.616,-4.896
4032.65,774.016,-4.896
4035.11,774.416,-4.896
4037.57,774.816,-4.896
4040.04,775.216,-4.8956
4042.51,775.616,-4.894
4044.978,776.016,-4.894
4047.45,776.416,-4.894
4049.91,776.816,-4.89544
4052.38,777.216,-4.896
4054.85,777.616,-4.896
4057.31,778.016,-4.896
4059.77,778.416,-4.896
4062.24,778.816,-4.896
4064.7,779.216,-4.896
4067.17,779.616,-4.89513
4069.64,780.016,-4.894
4072.11,780.416,-4.894
4074.58,780.816,-4.894
4077.06,781.216,-4.894
4079.53,781.616,-4.894
4082,782.016,-4.894
4084.48,782.416,-4.89403
4086.96,782.816,-4.89594
4089.44,783.216,-4.896
4091.92,783.616,-4.89621
4094.41,784.016,-4.894
4096.89,784.416,-4.894
4099.356,784.816,-4.894
4101.84,785.216,-4.894
4104.32,785.616,-4.894
4106.79,786.016,-4.894
4109.27,786.416,-4.894
4111.75,786.816,-4.894
4114.22,787.216,-4.894
4116.69,787.616,-4.894
4119.18,788.016,-4.89613
4121.658,788.416,-4.896
4124.13,788.816,-4.89602
4126.62,789.216,-4.89697
4129.11,789.616,-4.897
4131.588,790.016,-4.89699
4134.07,790.416,-4.89801
4136.56,790.816,-4.898
4139.04,791.216,-4.89581
4141.52,791.616,-4.896
4144.008,792.016,-4.896
4146.492,792.416,-4.89521
4148.985,792.816,-4.896
4151.475,793.216,-4.896
4153.97,793.616,-4.896
4156.46,794.016,-4.896
4158.942,794.416,-4.896
4161.42,794.816,-4.896
4163.91,795.216,-4.896
4166.39,795.616,-4.89608
4168.87,796.016,-4.895
4171.36,796.416,-4.895
4173.85,796.816,-4.895
4176.33,797.216,-4.895
4178.81,797.616,-4.895
4181.29,798.016,-4.89489
4183.78,798.416,-4.896
4186.26,798.816,-4.89604
4188.75,799.216,-4.895
4191.24,799.616,-4.895
4193.72,800.016,-4.895
4196.21,800.416,-4.89562
4198.7,800.816,-4.89499
4201.18,801.216,-4.895
4203.678,801.616,-4.895
4206.17,802.016,-4.895
4208.65,802.416,-4.8961
4211.14,802.816,-4.89561
4213.635,803.216,-4.895
4216.12,803.616,-4.895
4218.61,804.016,-4.895
4221.11,804.416,-4.89399
4223.598,804.816,-4.89501
4226.09,805.216,-4.895
4228.581,805.616,-4.895
4231.07,806.016,-4.89629
4233.56,806.416,-4.897
4236.05,806.816,-4.897
4238.53,807.216,-4.897
4241.01,807.616,-4.89704
4243.5,808.016,-4.89599
4245.984,808.416,-4.896
4248.46,808.816,-4.896
4250.943,809.216,-4.89602
4253.424,809.616,-4.89576
4255.9,810.016,-4.896
4258.386,810.416,-4.896
4260.87,810.816,-4.896
4263.36,811.216,-4.896
4265.84,811.616,-4.89594
4268.33,812.016,-4.89403
4270.81,812.416,-4.894
4273.3,812.816,-4.894
4275.78,813.216,-4.894
4278.27,813.616,-4.894
4280.76,814.016,-4.89485
4283.25,814.416,-4.89594
4285.73,814.816,-4.89403
4288.22,815.216,-4.894
4290.71,815.616,-4.894
4293.19,816.016,-4.894
4295.68,816.416,-4.894
4298.17,816.816,-4.894
4300.665,817.216,-4.89398
4303.164,817.616,-4.8961
4305.66,818.016,-4.896
4308.16,818.416,-4.896
4310.658,818.816,-4.896
4313.15,819.216,-4.89601
4315.641,819.616,-4.89382
4318.13,820.016,-4.894
4320.63,820.416,-4.89583
4323.13,820.816,-4.896
4325.63,821.216,-4.896
4328.12,821.616,-4.896
4330.62,822.016,-4.896
4333.11,822.416,-4.89603
4335.6,822.816,-4.89695
4338.09,823.216,-4.895
4340.586,823.616,-4.895
4343.08,824.016,-4.895
4345.58,824.416,-4.89488
4348.09,824.816,-4.89503
4350.59,825.216,-4.89501
4353.08,825.616,-4.894
4355.58,826.016,-4.89401
4358.079,826.416,-4.89497
4360.58,826.816,-4.89501
4363.07,827.216,-4.89392
4365.58,827.616,-4.894
4368.075,828.016,-4.894
4370.574,828.416,-4.894
4373.073,828.816,-4.89511
4375.563,829.216,-4.89389
4378.05,829.616,-4.89389
4380.53,830.016,-4.895
4383.027,830.416,-4.895
4385.51,830.816,-4.89399
4388,831.216,-4.89501
4390.49,831.616,-4.895
4392.99,832.016,-4.895
4395.48,832.416,-4.895
4397.98,832.816,-4.895
4400.48,833.216,-4.895
4402.96,833.616,-4.89501
4405.45,834.016,-4.89597
4407.94,834.416,-4.896
4410.42,834.816,-4.89708
4412.904,835.216,-4.898
4415.39,835.616,-4.898
4417.88,836.016,-4.898
4420.36,836.416,-4.898
4422.84,836.816,-4.898
4425.324,837.216,-4.89808
4427.811,837.616,-4.89679
4430.3,838.016,-4.89901
4432.78,838.416,-4.89816
4435.27,838.816,-4.898
4437.74,839.216,-4.898
4440.219,839.616,-4.898
4442.7,840.016,-4.898
4445.169,840.416,-4.89782
4447.64,840.816,-4.89892
4450.12,841.216,-4.899
4452.6,841.616,-4.899
4455.09,842.016,-4.899
4457.58,842.416,-4.899
4460.06,842.816,-4.899
4462.55,843.216,-4.899
4465.03,843.616,-4.89921
4467.52,844.016,-4.89699
4470.006,844.416,-4.897
4472.5,844.816,-4.897
4474.97,845.216,-4.897
4477.45,845.616,-4.89699
4479.94,846.016,-4.89922
4482.43,846.416,-4.899
4484.91,846.816,-4.899
4487.4,847.216,-4.899
4489.9,847.616,-4.897
4492.39,848.016,-4.897
4494.879,848.416,-4.897
4497.38,848.816,-4.897
4499.88,849.216,-4.897
4502.38,849.616,-4.897
4504.87,850.016,-4.89506
4507.38,850.416,-4.8952
4509.89,850.816,-4.897
4512.39,851.216,-4.897
4514.9,851.616,-4.897
4517.41,852.016,-4.897
4519.92,852.416,-4.897
4522.44,852.816,-4.897
4524.95,853.216,-4.89702
4527.48,853.616,-4.89798
4530.01,854.016,-4.898
4532.53,854.416,-4.898
4535.05,854.816,-4.89802
4537.59,855.216,-4.89917
4540.11,855.616,-4.89699
4542.65,856.016,-4.89705
4545.18,856.416,-4.89611
4547.715,856.816,-4.897
4550.24,857.216,-4.89711
4552.76,857.616,-4.896
4555.28,858.016,-4.896
4557.8,858.416,-4.89499
4560.33,858.816,-4.89601
4562.85,859.216,-4.896
4565.376,859.616,-4.89611
4567.9,860.016,-4.896
4570.42,860.416,-4.896
4572.95,860.816,-4.896
4575.47,861.216,-4.89596
4577.99,861.616,-4.89605
4580.51,862.016,-4.89599
4583.04,862.416,-4.895
4585.55,862.816,-4.8957
4588.08,863.216,-4.895
4590.6,863.616,-4.895
4593.12,864.016,-4.895
4595.634,864.416,-4.89519
4598.15,864.816,-4.896
4600.659,865.216,-4.896
4603.17,865.616,-4.896
4605.68,866.016,-4.896
4608.19,866.416,-4.896
4610.703,866.816,-4.89711
4613.22,867.216,-4.8959
4615.737,867.616,-4.896
4618.25,868.016,-4.896
4620.759,868.416,-4.89601
4623.3,868.816,-4.8977
4625.81,869.216,-4.897
4628.439,869.616,-4.897