File: Verification/Kinetics/NIST_TGA_10K_cat_devc.csv
s,[K],[mg],[W/g]
Time,"Temperature","Mass","Heat Flow"
 0.0000000E+000, 300.15, 5, 0.0000000E+000
 6.1, 300.624, 5, 0.207775
 12.1, 301.627, 5, 0.216986
 18.1, 302.628, 5, 0.226481
 24, 303.621, 5, 0.222958
 30, 304.614, 5, 0.226673
 36, 305.614, 5, 0.22958
 42, 306.614, 5, 0.225498
 48, 307.612, 5, 0.226077
 54, 308.613, 5, 0.227093
 60, 309.611, 5, 0.227918
 66, 310.613, 5, 0.238085
 72, 311.612, 5, 0.236361
 78.1, 312.619, 5, 0.235778
 84.1, 313.625, 5, 0.237105
 90.1, 314.624, 5, 0.235269
 96.1, 315.622, 5, 0.236303
 102.1, 316.624, 5, 0.245835
 108.1, 317.623, 5, 0.244762
 114.1, 318.623, 5, 0.244829
 120.1, 319.622, 5, 0.244395
 126.1, 320.623, 5, 0.246956
 132.1, 321.622, 5, 0.244963
 138.1, 322.62, 5, 0.245971
 144.1, 323.621, 5, 0.25552
 150.1, 324.62, 5, 0.254463
 156.1, 325.621, 5, 0.254613
 162.1, 326.62, 5, 0.25412
 168.1, 327.62, 5, 0.256802
 174.1, 328.619, 5, 0.254653
 180.1, 329.618, 5, 0.255519
 186.1, 330.619, 5, 0.265208
 192.1, 331.618, 5, 0.264163
 198.1, 332.619, 5, 0.264397
 204.1, 333.617, 5, 0.263843
 210.1, 334.618, 5, 0.266643
 216.1, 335.617, 5, 0.264352
 222.1, 336.615, 5, 0.265165
 228.1, 337.617, 5, 0.274892
 234.1, 338.615, 5, 0.273862
 240.1, 339.616, 5, 0.274168
 246.1, 340.615, 5, 0.273548
 252.1, 341.615, 5, 0.27635
 258.1, 342.615, 5, 0.27405
 264.1, 343.613, 5, 0.274841
 270.1, 344.614, 5, 0.284589
 276.1, 345.613, 5, 0.28356
 282.1, 346.614, 5, 0.28395
 288.1, 347.613, 5, 0.283267
 294.1, 348.613, 5, 0.286181
 300.1, 349.612, 5, 0.283753
 306, 350.605, 5, 0.287642
 312, 351.597, 5, 0.28591
 318, 352.598, 5, 0.296433
 324, 353.597, 5, 0.294354
 330, 354.598, 5, 0.298451
 336, 355.597, 5, 0.293496
 342, 356.596, 5, 0.294036
 348, 357.597, 5, 0.294981
 354, 358.595, 5, 0.29557
 360, 359.596, 5, 0.306181
 366, 360.595, 5, 0.304045
 372, 361.595, 5, 0.308247
 378, 362.595, 5, 0.303194
 384, 363.593, 5, 0.303725
 390, 364.594, 5, 0.304711
 396, 365.593, 5, 0.305123
 402, 366.594, 5, 0.315935
 408, 367.593, 5, 0.313729
 414, 368.593, 5, 0.318047
 420, 369.593, 5, 0.312929
 426, 370.591, 5, 0.313435
 432, 371.592, 5, 0.314447
 438, 372.59, 5, 0.314804
 444, 373.591, 5, 0.325696
 450, 374.59, 5, 0.323424
 456, 375.59, 5, 0.327849
 462, 376.59, 5, 0.322665
 468, 377.589, 5, 0.323023
 474, 378.589, 5, 0.324183
 480, 379.588, 4.99999, 0.32449
 486, 380.589, 4.99999, 0.33545
 492, 381.588, 4.99999, 0.333116
 498, 382.588, 4.99999, 0.337649
 504, 383.588, 4.99999, 0.332408
 510, 384.586, 4.99999, 0.332724
 516, 385.587, 4.99999, 0.333914
 522, 386.586, 4.99998, 0.334185
 528, 387.587, 4.99998, 0.345223
 534, 388.586, 4.99998, 0.342824
 540, 389.586, 4.99998, 0.347329
 546, 390.585, 4.99997, 0.342158
 552, 391.584, 4.99997, 0.342455
 558, 392.585, 4.99997, 0.343679
 564, 393.583, 4.99996, 0.343897
 570, 394.584, 4.99996, 0.355015
 576, 395.583, 4.99995, 0.352542
 582, 396.584, 4.99994, 0.356498
 588, 397.583, 4.99993, 0.35046
 594, 398.582, 4.99993, 0.349969
 600, 399.583, 4.99992, 0.350374
 606, 400.582, 4.9999, 0.349774
 612, 401.583, 4.99989, 0.360039
 618, 402.582, 4.99988, 0.356824
 624, 403.582, 4.99986, 0.360686
 630, 404.582, 4.99984, 0.354648
 636, 405.581, 4.99982, 0.354158
 642, 406.582, 4.9998, 0.354589
 648, 407.581, 4.99977, 0.353978
 654, 408.582, 4.99974, 0.364292
 660, 409.581, 4.99971, 0.361062
 666, 410.581, 4.99967, 0.364979
 672, 411.581, 4.99962, 0.358959
 678, 412.58, 4.99958, 0.358483
 684, 413.581, 4.99952, 0.358908
 690, 414.58, 4.99946, 0.358354
 696, 415.581, 4.99939, 0.368731
 702, 416.58, 4.99932, 0.365506
 708, 417.58, 4.99923, 0.369498
 714, 418.58, 4.99914, 0.363521
 720, 419.579, 4.99903, 0.363086
 726, 420.58, 4.99891, 0.363587
 732, 421.579, 4.99878, 0.36307
 738, 422.58, 4.99863, 0.373541
 744, 423.579, 4.99847, 0.370359
 750, 424.579, 4.99828, 0.374464
 756, 425.579, 4.99808, 0.368524
 762, 426.578, 4.99785, 0.368227
 768, 427.579, 4.99759, 0.368857
 774, 428.577, 4.99731, 0.368435
 780, 429.578, 4.997, 0.379053
 786, 430.578, 4.99665, 0.375976
 792, 431.578, 4.99627, 0.380258
 798, 432.578, 4.99584, 0.374478
 804, 433.576, 4.99537, 0.374357
 810, 434.577, 4.99485, 0.375196
 816, 435.576, 4.99428, 0.374953
 822, 436.577, 4.99365, 0.38581
 828, 437.576, 4.99295, 0.382881
 834, 438.576, 4.99218, 0.387484
 840, 439.576, 4.99134, 0.381968
 846, 440.574, 4.99042, 0.382109
 852, 441.575, 4.98941, 0.38325
 858, 442.574, 4.98831, 0.383279
 864, 443.575, 4.9871, 0.39446
 870, 444.574, 4.98579, 0.391811
 876, 445.574, 4.98436, 0.39675
 882, 446.574, 4.98281, 0.391547
 888, 447.572, 4.98113, 0.391981
 894, 448.573, 4.97932, 0.393431
 900, 449.571, 4.97736, 0.393659
 906, 450.572, 4.97527, 0.405147
 912, 451.571, 4.97302, 0.402681
 918, 452.571, 4.97063, 0.40779
 924, 453.571, 4.96808, 0.402683
 930, 454.569, 4.96539, 0.403115
 936, 455.57, 4.96254, 0.404514
 942, 456.569, 4.95956, 0.404553
 948, 457.57, 4.95644, 0.415753
 954, 458.569, 4.95321, 0.41284
 960, 459.569, 4.94986, 0.417392
 966, 460.569, 4.94644, 0.411554
 972, 461.567, 4.94295, 0.411026
 978, 462.568, 4.93942, 0.411408
 984, 463.567, 4.93588, 0.41019
 990, 464.569, 4.93237, 0.420006
 996, 465.568, 4.92891, 0.415527
 1002, 466.568, 4.92555, 0.418429
 1008, 467.569, 4.92231, 0.41085
 1014, 468.568, 4.91923, 0.408531
 1020, 469.569, 4.91635, 0.407157
 1026, 470.569, 4.91369, 0.404235
 1032, 471.57, 4.91128, 0.4125
 1038, 472.57, 4.90912, 0.406649
 1044, 473.571, 4.90723, 0.408433
 1050, 474.571, 4.90561, 0.400146
 1056, 475.571, 4.90425, 0.397426
 1062, 476.572, 4.90313, 0.396054
 1068, 477.571, 4.90224, 0.393468
 1074, 478.573, 4.90155, 0.402471
 1080, 479.572, 4.90103, 0.397628
 1086, 480.573, 4.90065, 0.400716
 1092, 481.573, 4.90039, 0.393889
 1098, 482.572, 4.9002, 0.392699
 1104, 483.573, 4.90008, 0.392886
 1110, 484.572, 4.90001, 0.391743
 1116, 485.573, 4.89996, 0.402045
 1122, 486.572, 4.89992, 0.398373
 1128, 487.572, 4.8999, 0.402446
 1134, 488.572, 4.89989, 0.396391
 1140, 489.571, 4.89987, 0.395765
 1146, 490.572, 4.89986, 0.396387
 1152, 491.571, 4.89984, 0.395524
 1158, 492.572, 4.89983, 0.406038
 1164, 493.571, 4.89981, 0.40246
 1170, 494.571, 4.89979, 0.406637
 1176, 495.571, 4.89977, 0.400649
 1182, 496.57, 4.89975, 0.400051
 1188, 497.571, 4.89973, 0.400676
 1194, 498.57, 4.89971, 0.399863
 1200, 499.571, 4.89968, 0.410428
 1206.1, 500.579, 4.89965, 0.408015
 1212.1, 501.583, 4.89962, 0.404874
 1218.1, 502.584, 4.89959, 0.408301
 1224.1, 503.583, 4.89955, 0.404083
 1230.1, 504.582, 4.89951, 0.403833
 1236.1, 505.583, 4.89947, 0.413094
 1242.1, 506.582, 4.89942, 0.411005
 1248.1, 507.583, 4.89937, 0.411812
 1254.1, 508.582, 4.89932, 0.409714
 1260.1, 509.582, 4.89926, 0.413065
 1266.1, 510.582, 4.8992, 0.40894
 1272.1, 511.581, 4.89913, 0.408745
 1278.1, 512.582, 4.89906, 0.418078
 1284.1, 513.581, 4.89898, 0.416037
 1290.1, 514.582, 4.8989, 0.41696
 1296.1, 515.581, 4.8988, 0.414925
 1302.1, 516.581, 4.89871, 0.418387
 1308.1, 517.581, 4.8986, 0.414346
 1314.1, 518.579, 4.89849, 0.414239
 1320.1, 519.581, 4.89837, 0.423683
 1326.1, 520.58, 4.89823, 0.421731
 1332.1, 521.58, 4.89809, 0.422764
 1338.1, 522.579, 4.89794, 0.420884
 1344.1, 523.58, 4.89778, 0.424511
 1350.1, 524.579, 4.8976, 0.42061
 1356.1, 525.578, 4.89742, 0.420646
 1362.1, 526.579, 4.89721, 0.430261
 1368.1, 527.578, 4.897, 0.42846
 1374.1, 528.579, 4.89676, 0.429719
 1380.1, 529.578, 4.89651, 0.428023
 1386.1, 530.578, 4.89625, 0.431884
 1392.1, 531.577, 4.89596, 0.428203
 1398.1, 532.576, 4.89565, 0.428466
 1404.1, 533.577, 4.89532, 0.438292
 1410.1, 534.576, 4.89497, 0.436772
 1416.1, 535.577, 4.89459, 0.438371
 1422.1, 536.576, 4.89418, 0.436964
 1428.1, 537.576, 4.89374, 0.44117
 1434.1, 538.575, 4.89328, 0.43783
 1440.1, 539.573, 4.89278, 0.438445
 1446.1, 540.575, 4.89225, 0.448655
 1452.1, 541.573, 4.89168, 0.447532
 1458.1, 542.574, 4.89107, 0.449597
 1464.1, 543.573, 4.89041, 0.44862
 1470.1, 544.573, 4.88972, 0.453348
 1476.1, 545.572, 4.88897, 0.450465
 1482.1, 546.57, 4.88817, 0.451661
 1488.1, 547.571, 4.88732, 0.46247
 1494.1, 548.57, 4.88642, 0.461933
 1500.1, 549.57, 4.88545, 0.464682
 1506.1, 550.569, 4.88441, 0.464377
 1512.1, 551.569, 4.88331, 0.469832
 1518.1, 552.568, 4.88213, 0.467729
 1524.1, 553.566, 4.88088, 0.469721
 1530.1, 554.567, 4.87954, 0.481389
 1536.1, 555.565, 4.87811, 0.481717
 1542.1, 556.565, 4.87659, 0.48546
 1548.1, 557.564, 4.87497, 0.486102
 1554.1, 558.563, 4.87325, 0.492667
 1560.1, 559.562, 4.87141, 0.491695
 1566.1, 560.56, 4.86946, 0.494839
 1572.1, 561.56, 4.86738, 0.507753
 1578.1, 562.558, 4.86517, 0.50937
 1584.1, 563.558, 4.86281, 0.5145
 1590.1, 564.556, 4.86031, 0.516599
 1596.1, 565.555, 4.85765, 0.524696
 1602.1, 566.554, 4.85482, 0.525318
 1608.1, 567.551, 4.85181, 0.53015
 1614.1, 568.551, 4.84862, 0.544824
 1620.1, 569.549, 4.84522, 0.548237
 1626.1, 570.548, 4.84162, 0.555384
 1632.1, 571.546, 4.8378, 0.559523
 1638.1, 572.544, 4.83374, 0.569774
 1644.1, 573.542, 4.82944, 0.572665
 1650.1, 574.539, 4.82487, 0.579839
 1656.1, 575.539, 4.82003, 0.597012
 1662.1, 576.536, 4.8149, 0.602981
 1668.1, 577.534, 4.80946, 0.612859
 1674.1, 578.531, 4.8037, 0.619842
 1680.1, 579.529, 4.7976, 0.63306
 1686.1, 580.526, 4.79114, 0.639071
 1692.1, 581.522, 4.78429, 0.649449
 1698.1, 582.521, 4.77706, 0.67001
 1704.1, 583.517, 4.7694, 0.679513
 1710.1, 584.515, 4.7613, 0.693077
 1716.1, 585.511, 4.75273, 0.703887
 1722.1, 586.508, 4.74368, 0.721084
 1728.1, 587.504, 4.73412, 0.731274
 1734.1, 588.499, 4.72402, 0.745965
 1740.1, 589.497, 4.71335, 0.770989
 1746.1, 590.492, 4.70209, 0.785135
 1752.1, 591.488, 4.69021, 0.803504
 1758.1, 592.483, 4.67767, 0.819343
 1764.1, 593.479, 4.66446, 0.841639
 1770.1, 594.473, 4.65053, 0.857213
 1776.1, 595.467, 4.63585, 0.877451
 1782.1, 596.463, 4.62038, 0.908139
 1788.1, 597.457, 4.6041, 0.928149
 1794.1, 598.452, 4.58697, 0.952536
 1800.1, 599.445, 4.56894, 0.97459
 1806.1, 600.439, 4.54998, 1.00322
 1812.1, 601.433, 4.53005, 1.02532
 1818.1, 602.425, 4.50911, 1.05222
 1824.1, 603.419, 4.48712, 1.08971
 1830.1, 604.411, 4.46404, 1.11667
 1836.1, 605.405, 4.43982, 1.14802
 1842.1, 606.396, 4.41441, 1.17727
 1848.1, 607.389, 4.38779, 1.21308
 1854.1, 608.38, 4.35989, 1.24254
 1860.1, 609.37, 4.33068, 1.27686
 1866.1, 610.363, 4.30011, 1.32162
 1872.1, 611.353, 4.26813, 1.35602
 1878.1, 612.345, 4.23471, 1.39463
 1884.1, 613.335, 4.19979, 1.43125
 1890.1, 614.326, 4.16333, 1.47418
 1896.1, 615.315, 4.12529, 1.51075
 1902.1, 616.304, 4.08562, 1.552
 1908.1, 617.295, 4.04429, 1.6034
 1914.1, 618.284, 4.00125, 1.6443
 1920.1, 619.274, 3.95647, 1.68885
 1926.1, 620.262, 3.90991, 1.73132
 1932.1, 621.252, 3.86154, 1.77942
 1938.1, 622.24, 3.81133, 1.82096
 1944.1, 623.228, 3.75926, 1.86655
 1950.1, 624.218, 3.70529, 1.92156
 1956.1, 625.206, 3.64941, 1.9655
 1962.1, 626.196, 3.59161, 2.01205
 1968.1, 627.184, 3.53189, 2.05603
 1974.1, 628.173, 3.47022, 2.10424
 1980.1, 629.162, 3.40663, 2.14534
 1986.1, 630.15, 3.34112, 2.18925
 1992.1, 631.141, 3.2737, 2.24142
 1998.1, 632.13, 3.20441, 2.28134
 2004.1, 633.121, 3.13327, 2.32194
 2010.1, 634.11, 3.06034, 2.3591
 2016.1, 635.102, 2.98565, 2.39843
 2022.1, 636.093, 2.90927, 2.42983
 2028.1, 637.084, 2.83128, 2.46197
 2034.1, 638.078, 2.75175, 2.50033
 2040.1, 639.071, 2.67079, 2.52482
 2046.1, 640.066, 2.58848, 2.54765
 2052.1, 641.06, 2.50496, 2.56577
 2058.1, 642.057, 2.42035, 2.58308
 2064.1, 643.054, 2.33478, 2.5916
 2070.1, 644.051, 2.24841, 2.5985
 2076.1, 645.052, 2.16141, 2.60941
 2082.1, 646.051, 2.07395, 2.60455
 2088.1, 647.055, 1.98621, 2.59544
 2094.1, 648.057, 1.89838, 2.58057
 2100.1, 649.062, 1.81068, 2.5623
 2106.1, 650.067, 1.72332, 2.53522
 2112.1, 651.074, 1.63651, 2.50428
 2118.1, 652.084, 1.55048, 2.4761
 2124.1, 653.094, 1.46547, 2.43071
 2130.1, 654.107, 1.3817, 2.37993
 2136.1, 655.119, 1.2994, 2.32363
 2142.1, 656.135, 1.21882, 2.26287
 2148.1, 657.15, 1.14017, 2.19557
 2154.1, 658.166, 1.06368, 2.12415
 2160.1, 659.186, 0.989552, 2.05615
 2166.1, 660.205, 0.917995, 1.9718
 2172.1, 661.227, 0.849192, 1.88397
 2178.1, 662.247, 0.783313, 1.79384
 2184.1, 663.271, 0.720507, 1.70185
 2190.1, 664.292, 0.660902, 1.60752
 2196.1, 665.314, 0.604604, 1.5117
 2202.1, 666.339, 0.551693, 1.42255
 2208.1, 667.363, 0.502222, 1.32081
 2214.1, 668.387, 0.456217, 1.2212
 2220.1, 669.409, 0.413675, 1.12514
 2226.1, 670.433, 0.374566, 1.03147
 2232.1, 671.453, 0.338833, 0.940211
 2238.1, 672.473, 0.306392, 0.852161
 2244.1, 673.496, 0.277135, 0.774769
 2250.1, 674.515, 0.25093, 0.689348
 2256.1, 675.534, 0.227629, 0.612003
 2262.1, 676.55, 0.207062, 0.541987
 2268.1, 677.567, 0.189051, 0.476851
 2274.1, 678.58, 0.173404, 0.417166
 2280.1, 679.592, 0.159925, 0.36294
 2286.1, 680.606, 0.148414, 0.32039
 2292.1, 681.616, 0.138673, 0.271419
 2298.1, 682.626, 0.130506, 0.232048
 2304.1, 683.633, 0.123726, 0.199122
 2310.1, 684.641, 0.118154, 0.170134
 2316.1, 685.646, 0.113623, 0.145548
 2322.1, 686.649, 0.109978, 0.12483
 2328.1, 687.656, 0.107079, 0.113456
 2334.1, 688.659, 0.104801, 0.0937982
 2340.1, 689.663, 0.103032, 0.0814544
 2346.1, 690.664, 0.101675, 0.0725777
 2352.1, 691.666, 0.100649, 0.065053
 2358.1, 692.666, 0.0998833, 0.059349
 2364.1, 693.666, 0.0993198, 0.0549964
 2370.1, 694.67, 0.0989111, 0.0575255
 2376.1, 695.67, 0.0986194, 0.0496473
 2382.1, 696.671, 0.0984143, 0.0471009
 2388.1, 697.67, 0.0982725, 0.046186
 2394.1, 698.671, 0.0981762, 0.0450831
 2400.1, 699.67, 0.0981119, 0.0444605
 2406.1, 700.669, 0.0980697, 0.0440744
 2412.1, 701.672, 0.0980426, 0.0496457
 2418.1, 702.671, 0.0980255, 0.0440656
 2424.1, 703.672, 0.098015, 0.0432158
 2430.1, 704.671, 0.0980086, 0.0435392
 2436.1, 705.672, 0.0980048, 0.0433208
 2442.1, 706.67, 0.0980026, 0.0433199
 2448.1, 707.669, 0.0980014, 0.0433606
 2454.1, 708.672, 0.0980007, 0.0492263
 2460.1, 709.671, 0.0980004, 0.0438356
 2466.1, 710.672, 0.0980002, 0.0431006
 2472.1, 711.671, 0.0980001, 0.0435026
 2478.1, 712.672, 0.098, 0.043332
 2484.1, 713.67, 0.098, 0.0433597
 2490.1, 714.669, 0.098, 0.0434181
 2496.1, 715.672, 0.098, 0.0493007
 2502.1, 716.671, 0.098, 0.0439148
 2508.1, 717.672, 0.098, 0.0431748
 2514.1, 718.671, 0.098, 0.0435792
 2520.1, 719.672, 0.098, 0.043409
 2526.1, 720.67, 0.098, 0.0434383
 2532.1, 721.669, 0.098, 0.0434969
 2538.1, 722.672, 0.098, 0.0493866
 2544.1, 723.671, 0.098, 0.0440002
 2550.1, 724.672, 0.098, 0.0432509
 2556.1, 725.671, 0.098, 0.0436557
 2562.1, 726.672, 0.098, 0.0434867
 2568.1, 727.67, 0.098, 0.0435174
 2574.1, 728.669, 0.098, 0.0435759
 2580.1, 729.672, 0.098, 0.0494727
 2586.1, 730.671, 0.098, 0.0440859
 2592.1, 731.672, 0.098, 0.0433285
 2598.1, 732.671, 0.098, 0.0437336
 2604.1, 733.672, 0.098, 0.0435644
 2610.1, 734.67, 0.098, 0.0435964
 2616.1, 735.669, 0.098, 0.0436551
 2622.1, 736.672, 0.098, 0.0495574
 2628.1, 737.671, 0.098, 0.0441722
 2634.1, 738.672, 0.098, 0.0434063
 2640.1, 739.671, 0.098, 0.0438114
 2646.1, 740.672, 0.098, 0.043642
 2652.1, 741.67, 0.098, 0.0436756
 2658.1, 742.669, 0.098, 0.0437346
 2664.1, 743.672, 0.098, 0.0496437
 2670.1, 744.671, 0.098, 0.0442587
 2676.1, 745.672, 0.098, 0.0434845
 2682.1, 746.671, 0.098, 0.0438889
 2688.1, 747.672, 0.098, 0.0437194
 2694.1, 748.67, 0.098, 0.0437545
 2700.1, 749.669, 0.098, 0.043815
 2706.1, 750.672, 0.098, 0.0497301
 2712.1, 751.671, 0.098, 0.0443456
 2718.1, 752.672, 0.098, 0.043563
 2724.1, 753.671, 0.098, 0.0439661
 2730.1, 754.672, 0.098, 0.0437967
 2736.1, 755.67, 0.098, 0.0438339
 2742.1, 756.669, 0.098, 0.0438954
 2748.1, 757.672, 0.098, 0.0498168
 2754.1, 758.671, 0.098, 0.0444333
 2760.1, 759.672, 0.098, 0.0436421
 2766.1, 760.671, 0.098, 0.0440439
 2772.1, 761.672, 0.098, 0.0438717
 2778.1, 762.67, 0.098, 0.0439135
 2784.1, 763.669, 0.098, 0.0439764
 2790.1, 764.672, 0.098, 0.0499039
 2796.1, 765.671, 0.098, 0.0445219
 2802.1, 766.672, 0.098, 0.043722
 2808.1, 767.671, 0.098, 0.0441204
 2814.1, 768.672, 0.098, 0.0439482
 2820.1, 769.67, 0.098, 0.0439934
 2826.1, 770.669, 0.098, 0.0440584
 2832.1, 771.672, 0.098, 0.0499917
 2838.1, 772.671, 0.098, 0.0446091
 2844.1, 773.672, 0.098, 0.0437785
 2850.1, 774.671, 0.098, 0.0441998
 2856.1, 775.671, 0.098, 0.0440188
 2862.1, 776.67, 0.098, 0.0440342
 2868.1, 777.669, 0.098, 0.0440656
 2874.1, 778.672, 0.098, 0.0499897
 2880.1, 779.671, 0.098, 0.0445946
 2886.1, 780.672, 0.098, 0.0437747
 2892.1, 781.671, 0.098, 0.0441998
 2898.1, 782.671, 0.098, 0.0440188
 2904.1, 783.67, 0.098, 0.0440342
 2910.1, 784.669, 0.098, 0.0440656
 2916.1, 785.672, 0.098, 0.0499897
 2922.1, 786.671, 0.098, 0.0445946
 2928.1, 787.672, 0.098, 0.0437747
 2934.1, 788.671, 0.098, 0.0441998
 2940.1, 789.671, 0.098, 0.0440188
 2946.1, 790.67, 0.098, 0.0440342
 2952.1, 791.669, 0.098, 0.0440656
 2958.1, 792.672, 0.098, 0.0499897
 2964.1, 793.671, 0.098, 0.0445946
 2970.1, 794.672, 0.098, 0.0437747
 2976.1, 795.671, 0.098, 0.0441998
 2982.1, 796.671, 0.098, 0.0440188
 2988.1, 797.67, 0.098, 0.0440342
 2994.1, 798.669, 0.098, 0.0440656
 3000.1, 799.672, 0.098, 0.0499897
 3006.1, 800.671, 0.098, 0.0445946
 3012.1, 801.672, 0.098, 0.0437747
 3018.1, 802.671, 0.098, 0.0441998
 3024.1, 803.671, 0.098, 0.0440188
 3030.1, 804.67, 0.098, 0.0440342
 3036.1, 805.669, 0.098, 0.0440656
 3042.1, 806.672, 0.098, 0.0499897
 3048.1, 807.671, 0.098, 0.0445946
 3054.1, 808.672, 0.098, 0.0437747
 3060.1, 809.671, 0.098, 0.0441998
 3066.1, 810.671, 0.098, 0.0440188
 3072.1, 811.67, 0.098, 0.0440342
 3078.1, 812.669, 0.098, 0.0440656
 3084.1, 813.672, 0.098, 0.0499897
 3090.1, 814.671, 0.098, 0.0445946
 3096.1, 815.672, 0.098, 0.0437747
 3102.1, 816.671, 0.098, 0.0441998
 3108.1, 817.671, 0.098, 0.0440188
 3114.1, 818.67, 0.098, 0.0440342
 3120.1, 819.669, 0.098, 0.0440656
 3126.1, 820.672, 0.098, 0.0499897
 3132.1, 821.671, 0.098, 0.0445946
 3138.1, 822.672, 0.098, 0.0437747
 3144.1, 823.671, 0.098, 0.0441998
 3150.1, 824.671, 0.098, 0.0440188
 3156.1, 825.67, 0.098, 0.0440342
 3162.1, 826.669, 0.098, 0.0440656
 3168.1, 827.672, 0.098, 0.0499897
 3174.1, 828.671, 0.098, 0.0445946
 3180.1, 829.672, 0.098, 0.0437747
 3186.1, 830.671, 0.098, 0.0441998
 3192.1, 831.671, 0.098, 0.0440188
 3198.1, 832.67, 0.098, 0.0440342
 3204.1, 833.669, 0.098, 0.0440656
 3210.1, 834.672, 0.098, 0.0499897
 3216.1, 835.671, 0.098, 0.0445946
 3222.1, 836.672, 0.098, 0.0437747
 3228.1, 837.671, 0.098, 0.0441998
 3234.1, 838.671, 0.098, 0.0440188
 3240.1, 839.67, 0.098, 0.0440342
 3246.1, 840.669, 0.098, 0.0440656
 3252.1, 841.672, 0.098, 0.0499897
 3258.1, 842.671, 0.098, 0.0445946
 3264.1, 843.672, 0.098, 0.0437747
 3270.1, 844.671, 0.098, 0.0441998
 3276.1, 845.671, 0.098, 0.0440188
 3282.1, 846.67, 0.098, 0.0440342
 3288.1, 847.669, 0.098, 0.0440656
 3294.1, 848.672, 0.098, 0.0499897
 3300.1, 849.671, 0.098, 0.0445946
 3306.1, 850.672, 0.098, 0.0437747
 3312.1, 851.671, 0.098, 0.0441998
 3318.1, 852.671, 0.098, 0.0440188
 3324.1, 853.67, 0.098, 0.0440342
 3330.1, 854.669, 0.098, 0.0440656
 3336.1, 855.672, 0.098, 0.0499897
 3342.1, 856.671, 0.098, 0.0445946
 3348.1, 857.672, 0.098, 0.0437747
 3354.1, 858.671, 0.098, 0.0441998
 3360.1, 859.671, 0.098, 0.0440188
 3366.1, 860.67, 0.098, 0.0440342
 3372.1, 861.669, 0.098, 0.0440656
 3378.1, 862.672, 0.098, 0.0499897
 3384.1, 863.671, 0.098, 0.0445946
 3390.1, 864.672, 0.098, 0.0437747
 3396.1, 865.671, 0.098, 0.0441998
 3402.1, 866.671, 0.098, 0.0440188
 3408.1, 867.67, 0.098, 0.0440342
 3414.1, 868.669, 0.098, 0.0440656
 3420.1, 869.672, 0.098, 0.0499897
 3426.1, 870.671, 0.098, 0.0445946
 3432.1, 871.672, 0.098, 0.0437747
 3438.1, 872.671, 0.098, 0.0441998
 3444.1, 873.671, 0.098, 0.0440188
 3450.1, 874.67, 0.098, 0.0440342
 3456.1, 875.669, 0.098, 0.0440656
 3462.1, 876.672, 0.098, 0.0499897
 3468.1, 877.671, 0.098, 0.0445946
 3474.1, 878.672, 0.098, 0.0437747
 3480.1, 879.671, 0.098, 0.0441998
 3486.1, 880.671, 0.098, 0.0440188
 3492.1, 881.67, 0.098, 0.0440342
 3498.1, 882.669, 0.098, 0.0440656
 3504.1, 883.672, 0.098, 0.0499897
 3510.1, 884.671, 0.098, 0.0445946
 3516.1, 885.672, 0.098, 0.0437747
 3522.1, 886.671, 0.098, 0.0441998
 3528.1, 887.671, 0.098, 0.0440188
 3534.1, 888.67, 0.098, 0.0440342
 3540.1, 889.669, 0.098, 0.0440656
 3546.1, 890.672, 0.098, 0.0499897
 3552.1, 891.671, 0.098, 0.0445946
 3558.1, 892.672, 0.098, 0.0437747
 3564.1, 893.671, 0.098, 0.0441998
 3570.1, 894.671, 0.098, 0.0440188
 3576.1, 895.67, 0.098, 0.0440342
 3582.1, 896.669, 0.098, 0.0440656
 3588.1, 897.672, 0.098, 0.0499897
 3594.1, 898.671, 0.098, 0.0445946
 3600.1, 899.672, 0.098, 0.0437747
 3606.1, 900.671, 0.098, 0.0441998
 3612.1, 901.671, 0.098, 0.0440188
 3618.1, 902.67, 0.098, 0.0440342
 3624.1, 903.669, 0.098, 0.0440656
 3630.1, 904.672, 0.098, 0.0499897
 3636.1, 905.671, 0.098, 0.0445946
 3642.1, 906.672, 0.098, 0.0437747
 3648.1, 907.671, 0.098, 0.0441998
 3654.1, 908.671, 0.098, 0.0440188
 3660.1, 909.67, 0.098, 0.0440342
 3666.1, 910.669, 0.098, 0.0440656
 3672.1, 911.672, 0.098, 0.0499897
 3678.1, 912.671, 0.098, 0.0445946
 3684.1, 913.672, 0.098, 0.0437747
 3690.1, 914.671, 0.098, 0.0441998
 3696.1, 915.671, 0.098, 0.0440188
 3702.1, 916.67, 0.098, 0.0440342
 3708.1, 917.669, 0.098, 0.0440656
 3714.1, 918.672, 0.098, 0.0499897
 3720.1, 919.671, 0.098, 0.0445946
 3726.1, 920.672, 0.098, 0.0437747
 3732.1, 921.671, 0.098, 0.0441998
 3738.1, 922.671, 0.098, 0.0440188
 3744.1, 923.67, 0.098, 0.0440342
 3750.1, 924.669, 0.098, 0.0440656
 3756.1, 925.672, 0.098, 0.0499897
 3762.1, 926.671, 0.098, 0.0445946
 3768.1, 927.672, 0.098, 0.0437747
 3774.1, 928.671, 0.098, 0.0441998
 3780.1, 929.671, 0.098, 0.0440188
 3786.1, 930.67, 0.098, 0.0440342
 3792.1, 931.669, 0.098, 0.0440656
 3798.1, 932.672, 0.098, 0.0499897
 3804.1, 933.671, 0.098, 0.0445946
 3810.1, 934.672, 0.098, 0.0437747
 3816.1, 935.671, 0.098, 0.0441998
 3822.1, 936.671, 0.098, 0.0440188
 3828.1, 937.67, 0.098, 0.0440342
 3834.1, 938.669, 0.098, 0.0440656
 3840.1, 939.672, 0.098, 0.0499897
 3846.1, 940.671, 0.098, 0.0445946
 3852.1, 941.672, 0.098, 0.0437747
 3858.1, 942.671, 0.098, 0.0441998
 3864.1, 943.671, 0.098, 0.0440188
 3870.1, 944.67, 0.098, 0.0440342
 3876.1, 945.669, 0.098, 0.0440656
 3882.1, 946.672, 0.098, 0.0499897
 3888.1, 947.671, 0.098, 0.0445946
 3894.1, 948.672, 0.098, 0.0437747
 3900.1, 949.671, 0.098, 0.0441998
 3906.1, 950.671, 0.098, 0.0440188
 3912.1, 951.67, 0.098, 0.0440342
 3918.1, 952.669, 0.098, 0.0440656
 3924.1, 953.672, 0.098, 0.0499897
 3930.1, 954.671, 0.098, 0.0445946
 3936.1, 955.672, 0.098, 0.0437747
 3942.1, 956.671, 0.098, 0.0441998
 3948.1, 957.671, 0.098, 0.0440188
 3954.1, 958.67, 0.098, 0.0440342
 3960.1, 959.669, 0.098, 0.0440656
 3966.1, 960.672, 0.098, 0.0499897
 3972.1, 961.671, 0.098, 0.0445946
 3978.1, 962.672, 0.098, 0.0437747
 3984.1, 963.671, 0.098, 0.0441998
 3990.1, 964.671, 0.098, 0.0440188
 3996.1, 965.67, 0.098, 0.0440342
 4002.1, 966.669, 0.098, 0.0440656
 4008.1, 967.672, 0.098, 0.0499897
 4014.1, 968.671, 0.098, 0.0445946
 4020.1, 969.672, 0.098, 0.0437747
 4026.1, 970.671, 0.098, 0.0441998
 4032.1, 971.671, 0.098, 0.0440188
 4038.1, 972.67, 0.098, 0.0440342
 4044.1, 973.669, 0.098, 0.0440656
 4050.1, 974.672, 0.098, 0.0499897
 4056.1, 975.671, 0.098, 0.0445946
 4062.1, 976.672, 0.098, 0.0437747
 4068.1, 977.671, 0.098, 0.0441998
 4074.1, 978.671, 0.098, 0.0440188
 4080.1, 979.67, 0.098, 0.0440342
 4086.1, 980.669, 0.098, 0.0440656
 4092.1, 981.672, 0.098, 0.0499897
 4098.1, 982.671, 0.098, 0.0445946
 4104.1, 983.672, 0.098, 0.0437747
 4110.1, 984.671, 0.098, 0.0441998
 4116.1, 985.671, 0.098, 0.0440188
 4122.1, 986.67, 0.098, 0.0440342
 4128.1, 987.669, 0.098, 0.0440656
 4134.1, 988.672, 0.098, 0.0499897
 4140.1, 989.671, 0.098, 0.0445946
 4146.1, 990.672, 0.098, 0.0437747
 4152.1, 991.671, 0.098, 0.0441998
 4158.1, 992.671, 0.098, 0.0440188
 4164.1, 993.67, 0.098, 0.0440342
 4170.1, 994.669, 0.098, 0.0440656
 4176.1, 995.672, 0.098, 0.0499897
 4182.1, 996.671, 0.098, 0.0445946
 4188.1, 997.672, 0.098, 0.0437747
 4194.1, 998.671, 0.098, 0.0441998
 4200, 999.663, 0.098, 0.0447246