File: PMMA/Validation_Results/BUW-FZJ/BUW-FZJ_ApproachB_Gasification_q50_MLR_R3.csv
Time,MLR
[s],[g/m2/s]
0.0,0.0
1.056409,1.5469e-13
2.112818,8.63347e-11
3.16923,4.37282e-09
4.04957,5.54695e-08
5.10598,4.66599e-07
6.16239,2.922108e-06
7.04273,1.17355e-05
8.09914,4.07359e-05
9.15554,0.00013038
10.0359,0.00033116
11.0923,0.000780052
12.1487,0.00179197
13.029,0.00355836
14.0855,0.00674623
15.1419,0.012725
16.0222,0.0216753
17.0786,0.035771
18.135,0.059189
19.0154,0.0907295
20.0718,0.135818
21.12818,0.20431
22.0085,0.28931
23.06493,0.401682
24.1213,0.559925
25.00168,0.742513
26.0581,0.966997
27.1145,1.26088
28.1709,1.60799
29.0512,1.97123
30.1077,2.376068
31.1641,2.85694
32.0444,3.32667
33.1008,3.81692
34.1572,4.36472
35.0376,4.870869
36.094,5.373725
37.1504,5.91219
38.0307,6.39205
39.0871,6.85491
40.1435,7.33899
41.0239,7.76247
42.0803,8.16535
43.1367,8.5825
44.017,8.94494
45.0735,9.28824
46.12986,9.64288
47.0102,9.95076
48.06661,10.2425
49.123,10.5442
50.00336,10.8066
51.0598,11.0559
52.1162,11.3143
53.1726,11.5595
54.0529,11.7735
55.1093,11.9776
56.1657,12.19004
57.0461,12.376
58.1025,12.55383
59.1589,12.7394
60.0392,12.9023
61.0957,13.0584
62.1521,13.2218
63.0324,13.3655
64.0888,13.5036
65.1452,13.6483
66.0256,13.7759
67.082,13.8987
68.1384,14.0277
69.0187,14.1417
70.0751,14.2515
71.13154,14.3671
72.0119,14.4694
73.06829,14.5682
74.1247,14.6724
75.005,14.7647
76.0614,14.8539
77.1179,14.9482
78.1743,15.0393
79.0546,15.12021
80.111,15.1987
81.1674,15.2817
82.0478,15.3555
83.1042,15.4272
84.1606,15.5033
85.0409,15.571
86.0973,15.6369
87.1537,15.7069
88.0341,15.7694
89.0905,15.8303
90.1469,15.8952
91.0272,15.9532
92.0837,16.0098
93.1401,16.0702
94.0204,16.1244
95.0768,16.1774
96.13322,16.2341
97.0136,16.28507
98.06997,16.3351
99.1264,16.3886
100.007,16.4369
101.063,16.4844
102.12,16.5355
103.176,16.5857
104.056,16.6312
105.1127,16.6761
106.169,16.7245
107.049,16.7684
108.106,16.8119
109.162,16.85894
110.043,16.9017
111.099,16.94417
112.155,16.9902
113.036,17.0322
114.092,17.074
115.149,17.1194
116.029,17.1609
117.085,17.2024
118.142,17.2475
119.022,17.28882
120.078,17.3301
121.1349,17.3752
122.015,17.4166
123.072,17.458
124.128,17.5033
125.0084,17.5462
126.065,17.5955
127.121,17.6434
128.002,17.6819
129.058,17.7263
130.114,17.7705
131.171,17.819
132.051,17.8602
133.108,17.9034
134.164,17.9516
135.044,17.9934
136.101,18.0394
137.1571,18.0859
138.037,18.1309
139.094,18.17468
140.15,18.2232
141.0306,18.2678
142.087,18.3116
143.143,18.36174
144.024,18.4054
145.08,18.4505
146.137,18.4992
147.017,18.5443
148.073,18.5901
149.13,18.6381
150.01,18.6839
151.066,18.7296
152.1229,18.7792
153.003,18.8245
154.06,18.8708
155.116,18.9216
156.172,18.9719
157.053,19.0183
158.109,19.0652
159.166,19.1166
160.046,19.1633
161.102,19.2104
162.159,19.262
163.039,19.3089
164.096,19.3562
165.152,19.4093
166.032,19.45627
167.089,19.506
168.1451,19.5581
169.025,19.6075
170.082,19.6565
171.138,19.7096
172.0186,19.7598
173.075,19.8105
174.131,19.8648
175.012,19.916
176.068,19.9668
177.125,20.0228
178.005,20.0746
179.061,20.12694
180.118,20.1839
181.174,20.24253
182.054,20.2958
183.1109,20.3487
184.1673,20.4071
185.048,20.4613
186.104,20.5153
187.16,20.575
188.0408,20.6299
189.097,20.6854
190.154,20.7454
191.034,20.8013
192.09,20.85738
193.147,20.9202
194.027,20.9774
195.084,21.0352
196.14,21.0998
197.02,21.1586
198.077,21.21837
199.1331,21.284
200.013,21.345
201.07,21.4068
202.126,21.4743
203.0066,21.5355
204.063,21.5984
205.119,21.6672
206.176,21.7361
207.056,21.8003
208.113,21.8652
209.169,21.9354
210.049,22.00105
211.106,22.0671
212.162,22.1383
213.042,22.2057
214.099,22.27295
215.1553,22.3485
216.036,22.4181
217.092,22.4889
218.148,22.56605
219.0288,22.6397
220.085,22.7123
221.142,22.7928
222.022,22.8664
223.078,22.9404
224.135,23.0224
225.015,23.0985
226.072,23.1757
227.128,23.2602
228.008,23.3377
229.065,23.4174
230.1211,23.503
231.001,23.5836
232.058,23.6641
233.114,23.7547
234.171,23.8463
235.051,23.9316
236.107,24.0173
237.164,24.1142
238.044,24.2028
239.101,24.2927
240.157,24.3908
241.037,24.4813
242.094,24.5727
243.15,24.676
244.03,24.7681
245.087,24.8646
246.1433,24.9697
247.024,25.0668
248.08,25.166
249.136,25.2745
250.0168,25.3759
251.073,25.475
252.13,25.5876
253.01,25.6949
254.066,25.8021
255.123,25.9186
256.003,26.0303
257.06,26.1385
258.116,26.2612
259.172,26.3841
260.053,26.4976
261.109,26.6119
262.1655,26.7388
263.046,26.856
264.102,26.9749
265.159,27.10322
266.039,27.2253
267.095,27.3451
268.152,27.4798
269.032,27.6026
270.089,27.7266
271.145,27.8628
272.025,27.988
273.082,28.11337
274.138,28.2519
275.018,28.379
276.075,28.5055
277.1313,28.6449
278.012,28.7709
279.068,28.8998
280.124,29.0371
281.0048,29.164
282.061,29.2904
283.118,29.4273
284.174,29.5629
285.054,29.6864
286.111,29.8086
287.167,29.9404
288.048,30.0598
289.104,30.1776
290.16,30.304
291.041,30.4193
292.097,30.5299
293.1535,30.6504
294.034,30.7597
295.09,30.8652
296.147,30.9779
297.027,31.0793
298.083,31.1775
299.14,31.2831
300.02,31.3775
301.077,31.4679
302.133,31.565
303.013,31.6507
304.07,31.7362
305.126,31.8245
306.006,31.9036
307.063,31.9811
308.1193,32.0617
309.1757,32.1401
310.056,32.2101
311.112,32.2787
312.169,32.3505
313.0492,32.4136
314.106,32.4756
315.162,32.53946
316.042,32.5975
317.099,32.6537
318.155,32.7117
319.036,32.7624
320.092,32.8111
321.148,32.8613
322.029,32.9057
323.085,32.9452
324.1415,32.9859
325.022,33.0197
326.078,33.0515
327.135,33.08
328.015,33.1024
329.071,33.11846
330.128,33.1312
331.008,33.1357
332.065,33.13265
333.121,33.1184
334.001,33.0946
335.058,33.0603
336.114,33.0021
337.171,32.9256
338.051,32.8233
339.107,32.7071
340.1637,32.5323
341.044,32.3253
342.1,32.069
343.157,31.6998
344.0372,31.2427
345.094,30.6372
346.15,29.72928
347.03,28.5672
348.087,26.8371
349.143,23.8156
350.024,19.1327
351.08,10.1797
352.136,0.727643
353.017,0.0
354.073,0.0
355.1295,0.0
356.01,0.0
357.066,0.0
358.123,0.0
359.003,0.0
360.0594,0.0
361.116,0.0
362.172,0.0
363.053,0.0
364.109,0.0
365.165,0.0
366.046,0.0
367.102,0.0
368.159,0.0
369.039,0.0
370.095,0.0
371.1517,0.0
372.032,0.0
373.088,0.0
374.145,0.0
375.0252,0.0
376.082,0.0
377.138,0.0
378.018,0.0
379.075,0.0
380.131,0.0
381.012,0.0
382.068,0.0
383.124,0.0
384.005,0.0
385.061,0.0
386.117,0.0
387.1739,0.0
388.054,0.0
389.111,0.0
390.167,0.0
391.0474,0.0
392.104,0.0
393.16,0.0
394.041,0.0
395.097,0.0
396.153,0.0
397.034,0.0
398.09,0.0
399.147,0.0
400.027,0.0
401.083,0.0
402.1397,0.0
403.02,0.0
404.076,0.0
405.133,0.0
406.0132,0.0
407.07,0.0
408.126,0.0
409.006,0.0
410.063,0.0
411.119,0.0
412.176,0.0
413.056,0.0
414.112,0.0
415.169,0.0
416.049,0.0
417.105,0.0
418.1619,0.0
419.042,0.0
420.099,0.0
421.155,0.0
422.0354,0.0
423.092,0.0
424.148,0.0
425.029,0.0
426.085,0.0
427.141,0.0
428.022,0.0
429.078,0.0
430.135,0.0
431.015,0.0
432.071,0.0
433.128,0.0
434.008,0.0
435.064,0.0
436.121,0.0
437.001,0.0
438.0576,0.0
439.114,0.0
440.17,0.0
441.051,0.0
442.107,0.0
443.164,0.0
444.044,0.0
445.1,0.0
446.157,0.0
447.037,0.0
448.093,0.0
449.1499,0.0
450.03,0.0
451.087,0.0
452.143,0.0
453.0234,0.0
454.08,0.0
455.136,0.0
456.017,0.0
457.073,0.0
458.129,0.0
459.01,0.0
460.066,0.0
461.123,0.0
462.003,0.0
463.059,0.0
464.116,0.0
465.1721,0.0
466.052,0.0
467.109,0.0
468.165,0.0
469.0456,0.0
470.102,0.0
471.158,0.0
472.039,0.0
473.095,0.0
474.152,0.0
475.032,0.0
476.088,0.0
477.145,0.0
478.025,0.0
479.081,0.0
480.1379,0.0
481.018,0.0
482.075,0.0
483.131,0.0
484.0114,0.0
485.0678,0.0
486.124,0.0
487.005,0.0
488.061,0.0
489.117,0.0
490.174,0.0
491.054,0.0
492.111,0.0
493.167,0.0
494.047,0.0
495.104,0.0
496.1601,0.0
497.04,0.0
498.097,0.0
499.153,0.0
500.0,0.0