File: PMMA/Validation_Results/BUW-FZJ/BUW-FZJ_PMMA01_Gasification_q50_MLR_R4.csv
Time,MLR_CH4,MLR_CO2,MLR_Combined
[s],[g/m2/s],[g/m2/s],[g/m2/s]
0.0,0.0,0.0,0.0
1.056409,1.07927e-05,0.000423554,0.000434347
2.112818,0.000671642,0.00301882,0.00369046
3.16923,0.00787858,0.0130601,0.0209386
4.04957,0.0339729,0.0313906,0.0653635
5.10598,0.102523,0.0602714,0.162794
6.16239,0.258455,0.104383,0.362838
7.04273,0.511796,0.157581,0.6693769
8.09914,0.878514,0.222151,1.10067
9.15554,1.30407,0.299956,1.60403
10.0359,1.54998,0.371687,1.92167
11.0923,1.54061,0.437013,1.97763
12.1487,1.3786,0.494506,1.87311
13.029,1.28503,0.530935,1.81597
14.0855,1.27759,0.5535251,1.831115
15.1419,1.32012,0.570317,1.89043
16.0222,1.38867,0.585297,1.97396
17.0786,1.48175,0.604892,2.08665
18.135,1.6045,0.635355,2.23986
19.0154,1.73622,0.673567,2.40978
20.0718,1.88688,0.722617,2.6095
21.12818,2.06869,0.787604,2.8563
22.0085,2.24739,0.857134,3.10452
23.06493,2.44096,0.937256,3.37822
24.1213,2.66389,1.03499,3.69888
25.00168,2.87851,1.13345,4.01197
26.0581,3.10047,1.24073,4.341194
27.1145,3.34746,1.36435,4.7118
28.1709,3.59809,1.49503,5.09312
29.0512,3.83299,1.62174,5.45474
30.1077,4.066311,1.75326,5.81957
31.1641,4.32103,1.90132,6.22235
32.0444,4.55357,2.04016,6.59373
33.1008,4.78099,2.18198,6.96296
34.1572,5.02339,2.33722,7.36061
35.0376,5.24208,2.48128,7.72336
36.094,5.45109,2.6247,8.07579
37.1504,5.67322,2.78119,8.4544
38.0307,5.86989,2.92453,8.79442
39.0871,6.05715,3.0653,9.12244
40.1435,6.25436,3.21824,9.4726
41.0239,6.42663,3.35651,9.78314
42.0803,6.59178,3.4929,10.0847
43.1367,6.76175,3.63855,10.4003
44.017,6.91238,3.77172,10.6841
45.0735,7.05197,3.89953,10.9515
46.12986,7.19816,4.03768,11.2358
47.0102,7.3256,4.16247,11.4881
48.06661,7.44394,4.28259,11.7265
49.123,7.57027,4.41459,11.9849
50.00336,7.67396,4.5282,12.2022
51.0598,7.77695,4.64335,12.4203
52.1162,7.87919,4.76389,12.6431
53.1726,7.97462,4.87984,12.8545
54.0529,8.06062,4.98798,13.0486
55.1093,8.13681,5.08874,13.2256
56.1657,8.21849,5.19981,13.4183
57.0461,8.28745,5.29833,13.5858
58.1025,8.34908,5.39075,13.7398
59.1589,8.41826,5.4952,13.9135
60.0392,8.47673,5.588926,14.0657
61.0957,8.52755,5.67484,14.2024
62.1521,8.58445,5.771902,14.3564
63.0324,8.63388,5.86079,14.4947
64.0888,8.67481,5.94041,14.6152
65.1452,8.72138,6.03028,14.7517
66.0256,8.761412,6.11278,14.8742
67.082,8.79655,6.18945,14.986
68.1384,8.83324,6.27156,15.1048
69.0187,8.86657,6.34815,15.2147
70.0751,8.89681,6.42374,15.3205
71.13154,8.9247,6.4982,15.4229
72.0119,8.9509,6.56775,15.5186
73.06829,8.97563,6.63804,15.6137
74.1247,9.00021,6.71146,15.7117
75.005,9.02145,6.77548,15.7969
76.0614,9.04215,6.84148,15.8836
77.1179,9.06366,6.91339,15.9771
78.1743,9.08116,6.97835,16.0595
79.0546,9.09763,7.03818,16.1358
80.111,9.11332,7.0996,16.2129
81.1674,9.129429,7.16403,16.2935
82.0478,9.14236,7.21946,16.3618
83.1042,9.15516,7.27586,16.431
84.1606,9.16957,7.33866,16.5082
85.0409,9.17847,7.39055,16.569
86.0973,9.18894,7.44287,16.6318
87.1537,9.2007,7.50136,16.7021
88.0341,9.20829,7.55132,16.7596
89.0905,9.21561,7.59967,16.8153
90.1469,9.22627,7.65502,16.8813
91.0272,9.23465,7.70485,16.9395
92.0837,9.23879,7.74824,16.987
93.1401,9.24691,7.79835,17.0453
94.0204,9.25576,7.84756,17.1033
95.0768,9.25955,7.89102,17.1506
96.13322,9.26481,7.9371,17.2019
97.0136,9.27242,7.98147,17.2539
98.06997,9.277453,8.02433,17.3018
99.1264,9.28142,8.0686,17.35
100.007,9.28747,8.11157,17.399
101.063,9.29141,8.15108,17.4425
102.12,9.29544,8.19275,17.4882
103.176,9.3006,8.23472,17.5353
104.056,9.304248,8.27275,17.577
105.1127,9.30774,8.30966,17.6174
106.169,9.31292,8.35164,17.6646
107.049,9.31402,8.3836,17.6976
108.106,9.31774,8.41743,17.7352
109.162,9.32355,8.45796,17.7815
110.043,9.32552,8.49257,17.8181
111.099,9.32901,8.52553,17.8545
112.155,9.333184,8.56027,17.8935
113.036,9.33567,8.59139,17.9271
114.092,9.3392,8.62462,17.9638
115.149,9.34314,8.66055,18.0037
116.029,9.34588,8.68892,18.0348
117.085,9.34942,8.71887,18.0683
118.142,9.35166,8.75042,18.1021
119.022,9.3557,8.78085,18.1366
120.078,9.35928,8.80865,18.1679
121.1349,9.361704,8.83703,18.1987
122.015,9.36575,8.86627,18.232
123.072,9.36866,8.8927,18.2614
124.128,9.37199,8.9207,18.2927
125.0084,9.37535,8.94785,18.3232
126.065,9.37805,8.972661,18.3507
127.121,9.38201,8.99894,18.381
128.002,9.38496,9.02435,18.4093
129.058,9.38793,9.04909,18.437
130.114,9.39126,9.07354,18.4648
131.171,9.39534,9.099056,18.4944
132.051,9.39747,9.12139,18.5189
133.108,9.40088,9.14388,18.5448
134.164,9.404869,9.16906,18.5739
135.044,9.40735,9.18875,18.5961
136.101,9.4109,9.20989,18.6208
137.1571,9.41465,9.2323,18.6469
138.037,9.41944,9.25447,18.6739
139.094,9.42222,9.27291,18.6951
140.15,9.42703,9.29403,18.7211
141.0306,9.43057,9.31427,18.7448
142.087,9.43406,9.33396,18.768
143.143,9.43752,9.3526,18.7901
144.024,9.44222,9.37197,18.8142
145.08,9.445194,9.38956,18.8348
146.137,9.44937,9.4089,18.8583
147.017,9.453072,9.42591,18.879
148.073,9.45691,9.44225,18.8992
149.13,9.46064,9.46094,18.9216
150.01,9.46493,9.47772,18.9426
151.066,9.46874,9.49313,18.9619
152.1229,9.47296,9.51009,18.9831
153.003,9.47613,9.52551,19.0016
154.06,9.48043,9.54064,19.0211
155.116,9.48429,9.55586,19.0401
156.172,9.4889,9.5729,19.0618
157.053,9.49293,9.58668,19.0796
158.109,9.49714,9.60078,19.0979
159.166,9.50228,9.61569,19.118
160.046,9.50655,9.62952,19.1361
161.102,9.510635,9.64237,19.153
162.159,9.51538,9.65634,19.1717
163.039,9.51933,9.6692,19.1885
164.096,9.52358,9.681158,19.2047
165.152,9.52843,9.69492,19.2234
166.032,9.53251,9.70673,19.2392
167.089,9.53665,9.71873,19.2554
168.1451,9.54154,9.73061,19.2722
169.025,9.54619,9.74274,19.2889
170.082,9.55052,9.75343,19.3039
171.138,9.555503,9.7659,19.3214
172.0186,9.56039,9.776897,19.3373
173.075,9.56513,9.78776,19.3529
174.131,9.56998,9.7996,19.3696
175.012,9.57458,9.80976,19.3843
176.068,9.57904,9.81984,19.3989
177.125,9.5841,9.83089,19.415
178.005,9.58897,9.84053,19.4295
179.061,9.59373,9.85036,19.4441
180.118,9.598998,9.86096,19.46
181.174,9.60423,9.87083,19.4751
182.054,9.60927,9.879407,19.4887
183.1109,9.61436,9.88784,19.5022
184.1673,9.61971,9.89735,19.5171
185.048,9.62453,9.90569,19.5302
186.104,9.62972,9.91392,19.5436
187.16,9.63544,9.923183,19.5586
188.0408,9.64066,9.93144,19.5721
189.097,9.64573,9.9396,19.5853
190.154,9.65157,9.94836,19.5999
191.034,9.656748,9.95611,19.6129
192.09,9.66227,9.96445,19.6267
193.147,9.66861,9.97355,19.6422
194.027,9.67454,9.981735,19.6563
195.084,9.67931,9.98781,19.6671
196.14,9.68442,9.99408,19.6785
197.02,9.68944,10.0016,19.691
198.077,9.69538,10.0116,19.7069
199.1331,9.70232,10.0242,19.7266
200.013,9.70934,10.0371,19.7465
201.07,9.71425,10.0454,19.7597
202.126,9.7168,10.0384,19.7552
203.0066,9.722354,10.0376,19.7599
204.063,9.73094,10.0492,19.7802
205.119,9.738476,10.0619,19.8004
206.176,9.74315,10.0681,19.8112
207.056,9.74915,10.07525,19.8244
208.113,9.75635,10.0851,19.8415
209.169,9.761274,10.0917,19.853
210.049,9.76642,10.0966,19.8631
211.106,9.77355,10.1044,19.878
212.162,9.77916,10.1113,19.8905
213.042,9.78445,10.1163,19.9007
214.099,9.79139,10.1236,19.915
215.1553,9.79687,10.13005,19.9269
216.036,9.80287,10.1358,19.9387
217.092,9.80944,10.1433,19.9527
218.148,9.81492,10.1493,19.9643
219.0288,9.82162,10.1567,19.9783
220.085,9.82672,10.1629,19.9896
221.142,9.8331,10.17,20.0031
222.022,9.83901,10.1775,20.0165
223.078,9.84427,10.184,20.0283
224.135,9.85065,10.1919,20.0425
225.015,9.855247,10.1982,20.0535
226.072,9.8609,10.2058,20.0667
227.128,9.86627,10.2133,20.0796
228.008,9.87132,10.2206,20.0919
229.065,9.87565,10.2279,20.1036
230.1211,9.88076,10.2362,20.117
231.001,9.88518,10.2438,20.129
232.058,9.889173,10.2515,20.1407
233.114,9.89355,10.2601,20.1537
234.171,9.89748,10.2691,20.1666
235.051,9.90079,10.2781,20.1789
236.107,9.90401,10.2865,20.1905
237.164,9.90706,10.2964,20.2034
238.044,9.90947,10.3058,20.2153
239.101,9.91151,10.3153,20.2268
240.157,9.91335,10.3261,20.2394
241.037,9.91491,10.337,20.2519
242.094,9.91601,10.3479,20.2639
243.15,9.91706,10.3604,20.2775
244.03,9.91763,10.3721,20.2897
245.087,9.918229,10.3845,20.3028
246.1433,9.91899,10.3992,20.3182
247.024,9.91998,10.4126,20.3326
248.08,9.92135,10.4275,20.3488
249.136,9.92341,10.4436,20.367
250.0168,9.926088,10.4605,20.3866
251.073,9.9303,10.4768,20.4071
252.13,9.93655,10.4966,20.4332
253.01,9.94439,10.51565,20.46
254.066,9.95491,10.5356,20.4905
255.123,9.96952,10.5592,20.5288
256.003,9.98621,10.58217,20.5684
257.06,10.0066,10.6057,20.6123
258.116,10.0348,10.6379,20.6726
259.172,10.0716,10.6751,20.7467
260.053,10.1116,10.7127,20.82436
261.109,10.1573,10.7527,20.91
262.1655,10.2128,10.7988,21.0116
263.046,10.269,10.8435,21.1125
264.102,10.3283,10.8861,21.2143
265.159,10.3991,10.9401,21.3392
266.039,10.4691,10.9923,21.4615
267.095,10.5439,11.0479,21.5917
268.152,10.6303,11.1115,21.7418
269.032,10.7141,11.1734,21.8875
270.089,10.8028,11.2423,22.0452
271.145,10.90582,11.318,22.2238
272.025,11.0053,11.3954,22.4007
273.082,11.112,11.4779,22.5898
274.138,11.2376,11.5764,22.814
275.018,11.3613,11.675,23.0363
276.075,11.49496,11.7834,23.2783
277.1313,11.6504,11.9112,23.5616
278.012,11.801,12.0387,23.8397
279.068,11.9508,12.157,24.1078
280.124,12.085,12.2539,24.3389
281.0048,12.2119,12.3651,24.5771
282.061,12.3398,12.4916,24.8314
283.118,12.4746,12.6256,25.1002
284.174,12.6082,12.7661,25.3742
285.054,12.7229,12.8966,25.6195
286.111,12.8292,13.0163,25.8455
287.167,12.9426,13.1596,26.1022
288.048,13.0329,13.2786,26.3115
289.104,13.11686,13.3934,26.5102
290.16,13.2003,13.5237,26.724
291.041,13.2656,13.6334,26.8991
292.097,13.3218,13.7354,27.0572
293.1535,13.3763,13.8541,27.2304
294.034,13.4146,13.9513,27.3659
295.09,13.4451,14.0417,27.4868
296.147,13.472,14.1489,27.6209
297.027,13.4855,14.236,27.7216
298.083,13.4916,14.3146,27.8062
299.14,13.4948,14.4107,27.9055
300.02,13.4851,14.4884,27.9735
301.077,13.4708,14.5619,28.0327
302.133,13.4529,14.6535,28.1064
303.013,13.4262,14.7255,28.1518
304.07,13.3929,14.794,28.1869
305.126,13.3535,14.8728,28.2263
306.006,13.312,14.9491,28.2611
307.063,13.2617,15.0125,28.2741
308.1193,13.2024,15.0824,28.2848
309.1757,13.1406,15.1651,28.3057
310.056,13.0754,15.2288,28.3042
311.112,13.0056,15.289,28.2945
312.169,12.9308,15.3759,28.3067
313.0492,12.8515,15.4404,28.2919
314.106,12.7667,15.5006,28.2674
315.162,12.6736,15.5754,28.249
316.042,12.5844,15.6531,28.2375
317.099,12.4851,15.7127,28.1979
318.155,12.3734,15.7807,28.1541
319.036,12.2716,15.8638,28.1354
320.092,12.1587,15.9244,28.0831
321.148,12.0313,15.9922,28.0236
322.029,11.9192,16.08243,28.0016
323.085,11.7906,16.1432,27.9337
324.1415,11.6439,16.2048,27.8487
325.022,11.5184,16.3004,27.8189
326.078,11.3752,16.3609,27.7361
327.135,11.2155,16.4323,27.6478
328.015,11.0719,16.5114,27.5833
329.071,10.9169,16.5846,27.5015
330.128,10.7365,16.6481,27.3846
331.008,10.5796,16.7307,27.3103
332.065,10.4096,16.8058,27.2155
333.121,10.2115,16.86469,27.0762
334.001,10.0395,16.9461,26.9856
335.058,9.85505,17.0216,26.8767
336.114,9.6397,17.0771,26.7168
337.171,9.43398,17.1614,26.5954
338.051,9.23268,17.23328,26.466
339.107,9.02233,17.2827,26.305
340.1637,8.79664,17.3528,26.1494
341.044,8.58183,17.4237,26.0055
342.1,8.34825,17.4368,25.785
343.157,8.11731,17.5412,25.6585
344.0372,7.87758,17.5679,25.4455
345.094,7.6369,17.5854,25.2223
346.15,7.38569,17.6656,25.0513
347.03,7.12398,17.6485,24.7724
348.087,6.88348,17.6874,24.5708
349.143,6.60018,17.6913,24.2915
350.024,6.3264,17.6317,23.9581
351.08,6.08642,17.7101,23.7965
352.136,5.7655,17.5697,23.3351
353.017,5.50259,17.5432,23.0458
354.073,5.21399,17.4251,22.6391
355.1295,4.88834,17.2115,22.0999
356.01,4.62098,17.147,21.768
357.066,4.29442,16.7396,21.034
358.123,3.98424,16.4694,20.4537
359.003,3.62516,15.7052,19.3303
360.0594,3.31644,15.066,18.3825
361.116,2.90314,13.5091,16.4122
362.172,2.43994,10.894,13.3339
363.053,1.83087,6.11392,7.94479
364.109,0.687804,0.71075,1.39855
365.165,0.00749314,0.0,0.00749314
366.046,0.0,0.0,0.0
367.102,0.0,0.0,0.0
368.159,0.0,0.0,0.0
369.039,0.0,0.0,0.0
370.095,0.0,0.0,0.0
371.1517,0.0,0.0,0.0
372.032,0.0,0.0,0.0
373.088,0.0,0.0,0.0
374.145,0.0,0.0,0.0
375.0252,0.0,0.0,0.0
376.082,0.0,0.0,0.0
377.138,0.0,0.0,0.0
378.018,0.0,0.0,0.0
379.075,0.0,0.0,0.0
380.131,0.0,0.0,0.0
381.012,0.0,0.0,0.0
382.068,0.0,0.0,0.0
383.124,0.0,0.0,0.0
384.005,0.0,0.0,0.0
385.061,0.0,0.0,0.0
386.117,0.0,0.0,0.0
387.1739,0.0,0.0,0.0
388.054,0.0,0.0,0.0
389.111,0.0,0.0,0.0
390.167,0.0,0.0,0.0
391.0474,0.0,0.0,0.0
392.104,0.0,0.0,0.0
393.16,0.0,0.0,0.0
394.041,0.0,0.0,0.0
395.097,0.0,0.0,0.0
396.153,0.0,0.0,0.0
397.034,0.0,0.0,0.0
398.09,0.0,0.0,0.0
399.147,0.0,0.0,0.0
400.027,0.0,0.0,0.0
401.083,0.0,0.0,0.0
402.1397,0.0,0.0,0.0
403.02,0.0,0.0,0.0
404.076,0.0,0.0,0.0
405.133,0.0,0.0,0.0
406.0132,0.0,0.0,0.0
407.07,0.0,0.0,0.0
408.126,0.0,0.0,0.0
409.006,0.0,0.0,0.0
410.063,0.0,0.0,0.0
411.119,0.0,0.0,0.0
412.176,0.0,0.0,0.0
413.056,0.0,0.0,0.0
414.112,0.0,0.0,0.0
415.169,0.0,0.0,0.0
416.049,0.0,0.0,0.0
417.105,0.0,0.0,0.0
418.1619,0.0,0.0,0.0
419.042,0.0,0.0,0.0
420.099,0.0,0.0,0.0
421.155,0.0,0.0,0.0
422.0354,0.0,0.0,0.0
423.092,0.0,0.0,0.0
424.148,0.0,0.0,0.0
425.029,0.0,0.0,0.0
426.085,0.0,0.0,0.0
427.141,0.0,0.0,0.0
428.022,0.0,0.0,0.0
429.078,0.0,0.0,0.0
430.135,0.0,0.0,0.0
431.015,0.0,0.0,0.0
432.071,0.0,0.0,0.0
433.128,0.0,0.0,0.0
434.008,0.0,0.0,0.0
435.064,0.0,0.0,0.0
436.121,0.0,0.0,0.0
437.001,0.0,0.0,0.0
438.0576,0.0,0.0,0.0
439.114,0.0,0.0,0.0
440.17,0.0,0.0,0.0
441.051,0.0,0.0,0.0
442.107,0.0,0.0,0.0
443.164,0.0,0.0,0.0
444.044,0.0,0.0,0.0
445.1,0.0,0.0,0.0
446.157,0.0,0.0,0.0
447.037,0.0,0.0,0.0
448.093,0.0,0.0,0.0
449.1499,0.0,0.0,0.0
450.03,0.0,0.0,0.0
451.087,0.0,0.0,0.0
452.143,0.0,0.0,0.0
453.0234,0.0,0.0,0.0
454.08,0.0,0.0,0.0
455.136,0.0,0.0,0.0
456.017,0.0,0.0,0.0
457.073,0.0,0.0,0.0
458.129,0.0,0.0,0.0
459.01,0.0,0.0,0.0
460.066,0.0,0.0,0.0
461.123,0.0,0.0,0.0
462.003,0.0,0.0,0.0
463.059,0.0,0.0,0.0
464.116,0.0,0.0,0.0
465.1721,0.0,0.0,0.0
466.052,0.0,0.0,0.0
467.109,0.0,0.0,0.0
468.165,0.0,0.0,0.0
469.0456,0.0,0.0,0.0
470.102,0.0,0.0,0.0
471.158,0.0,0.0,0.0
472.039,0.0,0.0,0.0
473.095,0.0,0.0,0.0
474.152,0.0,0.0,0.0
475.032,0.0,0.0,0.0
476.088,0.0,0.0,0.0
477.145,0.0,0.0,0.0
478.025,0.0,0.0,0.0
479.081,0.0,0.0,0.0
480.1379,0.0,0.0,0.0
481.018,0.0,0.0,0.0
482.075,0.0,0.0,0.0
483.131,0.0,0.0,0.0
484.0114,0.0,0.0,0.0
485.0678,0.0,0.0,0.0
486.124,0.0,0.0,0.0
487.005,0.0,0.0,0.0
488.061,0.0,0.0,0.0
489.117,0.0,0.0,0.0
490.174,0.0,0.0,0.0
491.054,0.0,0.0,0.0
492.111,0.0,0.0,0.0
493.167,0.0,0.0,0.0
494.047,0.0,0.0,0.0
495.104,0.0,0.0,0.0
496.1601,0.0,0.0,0.0
497.04,0.0,0.0,0.0
498.097,0.0,0.0,0.0
499.153,0.0,0.0,0.0
500.0,0.0,0.0,0.0