File: PMMA/Validation_Results/BUW-FZJ/BUW-FZJ_PMMA01_Gasification_q50_Temp_R2.csv
Time,T_back_1
[s],[K]
0.0,291.2
1.056409,291.2
2.112818,291.2
3.16923,291.2
4.04957,291.2
5.10598,291.2
6.16239,291.2
7.04273,291.201
8.09914,291.205
9.15554,291.216
10.0359,291.237
11.0923,291.275
12.1487,291.341
13.029,291.432
14.0855,291.556
15.1419,291.734
16.0222,291.94
17.0786,292.189
18.135,292.51
19.0154,292.85
20.0718,293.235
21.12818,293.704
22.0085,294.176
23.06493,294.689
24.1213,295.292
25.00168,295.882
26.0581,296.507
27.1145,297.224
28.1709,297.978
29.0512,298.697
30.1077,299.443
31.1641,300.284
32.0444,301.078
33.1008,301.894
34.1572,302.805
35.0376,303.658
36.094,304.529
37.1504,305.495
38.0307,306.3945
39.0871,307.307
40.1435,308.315
41.0239,309.25
42.0803,310.195
43.1367,311.234
44.017,312.195
45.0735,313.162
46.12986,314.223
47.0102,315.2
48.06661,316.181
49.123,317.255
50.00336,318.242
51.0598,319.229
52.1162,320.308
53.1726,321.385
54.0529,322.371
55.1093,323.354
56.1657,324.424
57.0461,325.403
58.1025,326.381
59.1589,327.448
60.0392,328.424
61.0957,329.401
62.1521,330.465
63.0324,331.439
64.0888,332.411
65.1452,333.471
66.0256,334.44
67.082,335.407
68.1384,336.46
69.0187,337.423
70.0751,338.384
71.13154,339.429
72.0119,340.383
73.06829,341.336
74.1247,342.371
75.005,343.318
76.0614,344.26
77.1179,345.285
78.1743,346.305
79.0546,347.237
80.111,348.165
81.1674,349.172
82.0478,350.092
83.1042,351.008
84.1606,352.002
85.0409,352.909
86.0973,353.811
87.1537,354.791
88.0341,355.683
89.0905,356.572
90.1469,357.535
91.0272,358.413
92.0837,359.286
93.1401,360.232
94.0204,361.094
95.0768,361.95
96.13322,362.879
97.0136,363.724
98.06997,364.563
99.1264,365.472
100.007,366.299
101.063,367.12
102.12,368.007
103.176,368.887
104.056,369.687
105.1127,370.479
106.169,371.335
107.049,372.112
108.106,372.881
109.162,373.71
110.043,374.461
111.099,375.205
112.155,376.009
113.036,376.741
114.092,377.468
115.149,378.255
116.029,378.973
117.085,379.687
118.142,380.461
119.022,381.168
120.078,381.871
121.1349,382.635
122.015,383.333
123.072,384.029
124.128,384.786
125.0084,385.477
126.065,386.167
127.121,386.917
128.002,387.603
129.058,388.288
130.114,389.0344
131.171,389.78
132.051,390.462
133.108,391.144
134.164,391.887
135.044,392.568
136.101,393.249
137.1571,393.991
138.037,394.672
139.094,395.353
140.15,396.097
141.0306,396.779
142.087,397.462
143.143,398.207
144.024,398.892
145.08,399.578
146.137,400.327
147.017,401.016
148.073,401.706
149.13,402.4602
150.01,403.154
151.066,403.849
152.1229,404.6097
153.003,405.309
154.06,406.012
155.116,406.782
156.172,407.554
157.053,408.265
158.109,408.98
159.166,409.763
160.046,410.484
161.102,411.209
162.159,412.004
163.039,412.737
164.096,413.474
165.152,414.285
166.032,415.032
167.089,415.783
168.1451,416.61
169.025,417.374
170.082,418.1434
171.138,418.99
172.0186,419.773
173.075,420.563
174.131,421.433
175.012,422.2391
176.068,423.054
177.125,423.953
178.005,424.784
179.061,425.622
180.118,426.542
181.174,427.47
182.054,428.326
183.1109,429.1894
184.1673,430.138
185.048,431.014
186.104,431.898
187.16,432.8687
188.0408,433.7658
189.097,434.671
190.154,435.666
191.034,436.586
192.09,437.514
193.147,438.536
194.027,439.481
195.084,440.435
196.14,441.485
197.02,442.457
198.077,443.439
199.1331,444.521
200.013,445.522
201.07,446.534
202.126,447.651
203.0066,448.685
204.063,449.731
205.119,450.8853
206.176,452.054
207.056,453.139
208.113,454.237
209.169,455.45
210.049,456.5773
211.106,457.719
212.162,458.982
213.042,460.157
214.099,461.349
215.1553,462.669
216.036,463.899
217.092,465.149
218.148,466.536
219.0288,467.83
220.085,469.148
221.142,470.6144
222.022,471.987
223.078,473.39
224.135,474.957
225.015,476.427
226.072,477.93
227.128,479.607
228.008,481.177
229.065,482.782
230.1211,484.57
231.001,486.247
232.058,487.961
233.114,489.871
234.171,491.827
235.051,493.661
236.107,495.537
237.164,497.631
238.044,499.595
239.101,501.606
240.157,503.853
241.037,505.962
242.094,508.122
243.15,510.536
244.03,512.803
245.087,515.128
246.1433,517.727
247.024,520.171
248.08,522.675
249.136,525.4782
250.0168,528.113
251.073,530.821
252.13,533.861
253.01,536.732
254.066,539.695
255.123,543.024
256.003,546.179
257.06,549.449
258.116,553.159
259.172,557.053
260.053,560.826
261.109,564.88
262.1655,569.68
263.046,574.537
264.102,579.132
265.159,583.421
266.039,586.896
267.095,590.036
268.152,593.167
269.032,595.848
270.089,598.347
271.145,600.876
272.025,603.032
273.082,605.039
274.138,607.116
275.018,608.909
276.075,610.611
277.1313,612.373
278.012,613.907
279.068,615.367
280.124,616.885
281.0048,618.22
282.061,619.502
283.118,620.844
284.174,622.136
285.054,623.277
286.111,624.382
287.167,625.55
288.048,626.596
289.104,627.615
290.16,628.702
291.041,629.675
292.097,630.634
293.1535,631.661
294.034,632.589
295.09,633.51
296.147,634.497
297.027,635.395
298.083,636.292
299.14,637.263
300.02,638.1449
301.077,639.025
302.133,639.991
303.013,640.8655
304.07,641.742
305.126,642.707
306.006,643.591
307.063,644.473
308.1193,645.44
309.1757,646.42
310.056,647.312
311.112,648.214
312.169,649.21
313.0492,650.117
314.106,651.036
315.162,652.057
316.042,652.991
317.099,653.941
318.155,654.989
319.036,655.947
320.092,656.933
321.148,658.021
322.029,659.031
323.085,660.043
324.1415,661.184
325.022,662.241
326.078,663.305
327.135,664.514
328.015,665.635
329.071,666.76
330.128,668.059
331.008,669.243
332.065,670.466
333.121,671.877
334.001,673.146
335.058,674.517
336.114,676.057
337.171,677.615
338.051,679.159
339.107,680.757
340.1637,682.527
341.044,684.38
342.1,686.1731
343.157,688.326
344.0372,690.526
345.094,692.742
346.15,695.63
347.03,698.245
348.087,701.63
349.143,705.498
350.024,709.9484
351.08,714.821
352.136,722.537
353.017,731.2
354.073,745.706
355.1295,771.797
356.01,802.504
357.066,822.715
358.123,836.426
359.003,844.98
360.0594,851.208
361.116,856.424
362.172,860.518
363.053,863.612
364.109,866.238
365.165,868.728
366.046,870.751
367.102,872.567
368.159,874.366
369.039,875.876
370.095,877.273
371.1517,878.6858
372.032,879.903
373.088,881.043
374.145,882.219
375.0252,883.237
376.082,884.212
377.138,885.22
378.018,886.1
379.075,886.948
380.131,887.8316
381.012,888.603
382.068,889.359
383.124,890.14
384.005,890.841
385.061,891.506
386.117,892.214
387.1739,892.894
388.054,893.497
389.111,894.074
390.167,894.695
391.0474,895.2309
392.104,895.7667
393.16,896.317
394.041,896.813
395.097,897.296
396.153,897.795
397.034,898.248
398.09,898.69
399.147,899.146
400.027,899.551
401.083,899.961
402.1397,900.386
403.02,900.757
404.076,901.117
405.133,901.517
406.0132,901.865
407.07,902.202
408.126,902.55
409.006,902.868
410.063,903.18
411.119,903.521
412.176,903.843
413.056,904.129
414.112,904.409
415.169,904.705
416.049,904.961
417.105,905.22
418.1619,905.496
419.042,905.744
420.099,905.9933
421.155,906.255
422.0354,906.485
423.092,906.71
424.148,906.948
425.029,907.162
426.085,907.372
427.141,907.594
428.022,907.793
429.078,907.989
430.135,908.197
431.015,908.384
432.071,908.566
433.128,908.76
434.008,908.935
435.064,909.106
436.121,909.289
437.001,909.452
438.0576,909.612
439.114,909.784
440.17,909.951
441.051,910.102
442.107,910.25
443.164,910.407
444.044,910.548
445.1,910.687
446.157,910.837
447.037,910.971
448.093,911.102
449.1499,911.242
450.03,911.368
451.087,911.493
452.143,911.626
453.0234,911.745
454.08,911.863
455.136,911.989
456.017,912.102
457.073,912.214
458.129,912.333
459.01,912.4413
460.066,912.547
461.123,912.661
462.003,912.763
463.059,912.864
464.116,912.972
465.1721,913.062
466.052,913.152
467.109,913.247
468.165,913.348
469.0456,913.438
470.102,913.527
471.158,913.624
472.039,913.711
473.095,913.8
474.152,913.911
475.032,913.993
476.088,914.074
477.145,914.163
478.025,914.242
479.081,914.32
480.1379,914.389
481.018,914.46
482.075,914.535
483.131,914.616
484.0114,914.689
485.0678,914.76
486.124,914.838
487.005,914.917
488.061,914.999
489.117,915.074
490.174,915.148
491.054,915.214
492.111,915.28
493.167,915.336
494.047,915.395
495.104,915.459
496.1601,915.528
497.04,915.59
498.097,915.651
499.153,915.716
500.0,915.797