File: PMMA/Validation_Results/BUW-FZJ/BUW-FZJ_ApproachB_Gasification_q50_Temp_R3.csv
Time,T_back_1
[s],[K]
0.0,291.2
1.056409,291.2
2.112818,291.2
3.16923,291.2
4.04957,291.2
5.10598,291.2
6.16239,291.2
7.04273,291.2
8.09914,291.2
9.15554,291.2
10.0359,291.2
11.0923,291.2
12.1487,291.2
13.029,291.2
14.0855,291.2
15.1419,291.201
16.0222,291.202
17.0786,291.203
18.135,291.206
19.0154,291.209
20.0718,291.215
21.12818,291.224
22.0085,291.235
23.06493,291.25
24.1213,291.272
25.00168,291.297
26.0581,291.329
27.1145,291.372
28.1709,291.425
29.0512,291.482
30.1077,291.55
31.1641,291.636
32.0444,291.727
33.1008,291.831
34.1572,291.959
35.0376,292.09
36.094,292.237
37.1504,292.414
38.0307,292.592
39.0871,292.787
40.1435,293.019
41.0239,293.25
42.0803,293.498
43.1367,293.789
44.017,294.074
45.0735,294.379
46.12986,294.731
47.0102,295.074
48.06661,295.436
49.123,295.851
50.00336,296.252
51.0598,296.672
52.1162,297.151
53.1726,297.652
54.0529,298.13
55.1093,298.627
56.1657,299.189
57.0461,299.724
58.1025,300.276
59.1589,300.898
60.0392,301.485
61.0957,302.09
62.1521,302.769
63.0324,303.407
64.0888,304.062
65.1452,304.794
66.0256,305.481
67.082,306.182
68.1384,306.964
69.0187,307.696
70.0751,308.441
71.13154,309.27
72.0119,310.042
73.06829,310.828
74.1247,311.7
75.005,312.511
76.0614,313.334
77.1179,314.245
78.1743,315.169
79.0546,316.027
80.111,316.895
81.1674,317.854
82.0478,318.743
83.1042,319.642
84.1606,320.633
85.0409,321.551
86.0973,322.477
87.1537,323.498
88.0341,324.441
89.0905,325.393
90.1469,326.439
91.0272,327.407
92.0837,328.381
93.1401,329.452
94.0204,330.441
95.0768,331.436
96.13322,332.529
97.0136,333.537
98.06997,334.551
99.1264,335.664
100.007,336.69
101.063,337.722
102.12,338.853
103.176,339.991
104.056,341.039
105.1127,342.091
106.169,343.245
107.049,344.307
108.106,345.374
109.162,346.543
110.043,347.618
111.099,348.698
112.155,349.88
113.036,350.968
114.092,352.06
115.149,353.255
116.029,354.354
117.085,355.457
118.142,356.664
119.022,357.773
120.078,358.886
121.1349,360.104
122.015,361.224
123.072,362.346
124.128,363.574
125.0084,364.703
126.065,365.835
127.121,367.072
128.002,368.21
129.058,369.35
130.114,370.598
131.171,371.848
132.051,372.996
133.108,374.148
134.164,375.406
135.044,376.5625
136.101,377.721
137.1571,378.988
138.037,380.152
139.094,381.317
140.15,382.592
141.0306,383.762
142.087,384.935
143.143,386.2172
144.024,387.395
145.08,388.5741
146.137,389.863
147.017,391.047
148.073,392.233
149.13,393.529
150.01,394.72
151.066,395.9121
152.1229,397.215
153.003,398.412
154.06,399.61
155.116,400.92
156.172,402.233
157.053,403.438
158.109,404.645
159.166,405.964
160.046,407.175
161.102,408.388
162.159,409.714
163.039,410.931
164.096,412.15
165.152,413.482
166.032,414.705
167.089,415.93
168.1451,417.268
169.025,418.497
170.082,419.728
171.138,421.074
172.0186,422.309
173.075,423.546
174.131,424.897
175.012,426.139
176.068,427.382
177.125,428.74
178.005,429.987
179.061,431.236
180.118,432.601
181.174,433.9687
182.054,435.224
183.1109,436.482
184.1673,437.856
185.048,439.118
186.104,440.381
187.16,441.762
188.0408,443.03
189.097,444.3
190.154,445.687
191.034,446.961
192.09,448.237
193.147,449.631
194.027,450.911
195.084,452.192
196.14,453.593
197.02,454.879
198.077,456.168
199.1331,457.575
200.013,458.868
201.07,460.162
202.126,461.577
203.0066,462.876
204.063,464.176
205.119,465.5979
206.176,467.022
207.056,468.329
208.113,469.638
209.169,471.069
210.049,472.382
211.106,473.698
212.162,475.135
213.042,476.455
214.099,477.776
215.1553,479.22
216.036,480.545
217.092,481.873
218.148,483.324
219.0288,484.655
220.085,485.989
221.142,487.447
222.022,488.785
223.078,490.124
224.135,491.5884
225.015,492.9321
226.072,494.278
227.128,495.748
228.008,497.097
229.065,498.449
230.1211,499.925
231.001,501.28
232.058,502.636
233.114,504.118
234.171,505.601
235.051,506.963
236.107,508.326
237.164,509.815
238.044,511.181
239.101,512.549
240.157,514.043
241.037,515.414
242.094,516.786
243.15,518.285
244.03,519.66
245.087,521.036
246.1433,522.538
247.024,523.9157
248.08,525.295
249.136,526.8
250.0168,528.18
251.073,529.561
252.13,531.068
253.01,532.45
254.066,533.831
255.123,535.339
256.003,536.72
257.06,538.102
258.116,539.608
259.172,541.113
260.053,542.492
261.109,543.871
262.1655,545.374
263.046,546.749
264.102,548.122
265.159,549.619
266.039,550.989
267.095,552.357
268.152,553.847
269.032,555.211
270.089,556.572
271.145,558.054
272.025,559.406
273.082,560.757
274.138,562.224
275.018,563.566
276.075,564.903
277.1313,566.3566
278.012,567.685
279.068,569.007
280.124,570.445
281.0048,571.757
282.061,573.064
283.118,574.482
284.174,575.893
285.054,577.18
286.111,578.46
287.167,579.849
288.048,581.115
289.104,582.373
290.16,583.735
291.041,584.9756
292.097,586.207
293.1535,587.542
294.034,588.756
295.09,589.962
296.147,591.269
297.027,592.459
298.083,593.64
299.14,594.92
300.02,596.085
301.077,597.244
302.133,598.499
303.013,599.643
304.07,600.78
305.126,602.015
306.006,603.141
307.063,604.262
308.1193,605.479
309.1757,606.693
310.056,607.803
311.112,608.911
312.169,610.118
313.0492,611.224
314.106,612.33
315.162,613.539
316.042,614.65
317.099,615.763
318.155,616.983
319.036,618.107
320.092,619.239
321.148,620.481
322.029,621.629
323.085,622.788
324.1415,624.065
325.022,625.249
326.078,626.448
327.135,627.774
328.015,629.006
329.071,630.2573
330.128,631.645
331.008,632.939
332.065,634.258
333.121,635.725
334.001,637.099
335.058,638.503
336.114,640.071
337.171,641.682
338.051,643.197
339.107,644.757
340.1637,646.5074
341.044,648.163
342.1,649.872
343.157,651.802
344.0372,653.638
345.094,655.541
346.15,657.707
347.03,659.781
348.087,661.947
349.143,664.432
350.024,666.833
351.08,669.368
352.136,672.313
353.017,675.199
354.073,678.296
355.1295,681.966
356.01,685.652
357.066,689.715
358.123,694.689
359.003,699.945
360.0594,706.182
361.116,714.572
362.172,725.778
363.053,740.466
364.109,763.255
365.165,793.79
366.046,815.778
367.102,832.134
368.159,845.801
369.039,855.577
370.095,863.3503
371.1517,870.194
372.032,875.315
373.088,879.563
374.145,883.459
375.0252,886.491
376.082,889.093
377.138,891.555
378.018,893.532
379.075,895.281
380.131,896.983
381.012,898.385
382.068,899.655
383.124,900.919
384.005,901.982
385.061,902.962
386.117,903.953
387.1739,904.873
388.054,905.662
389.111,906.405
390.167,907.17
391.0474,907.834
392.104,908.463
393.16,909.114
394.041,909.682
395.097,910.223
396.153,910.787
397.034,911.28
398.09,911.753
399.147,912.247
400.027,912.682
401.083,913.1
402.1397,913.539
403.02,913.927
404.076,914.3014
405.133,914.695
406.0132,915.044
407.07,915.381
408.126,915.738
409.006,916.055
410.063,916.362
411.119,916.687
412.176,917.003
413.056,917.284
414.112,917.557
415.169,917.847
416.049,918.106
417.105,918.359
418.1619,918.626
419.042,918.866
420.099,919.1
421.155,919.35
422.0354,919.573
423.092,919.791
424.148,920.023
425.029,920.231
426.085,920.435
427.141,920.652
428.022,920.848
429.078,921.039
430.135,921.243
431.015,921.426
432.071,921.606
433.128,921.799
434.008,921.971
435.064,922.14
436.121,922.323
437.001,922.486
438.0576,922.646
439.114,922.817
440.17,922.986
441.051,923.138
442.107,923.287
443.164,923.447
444.044,923.591
445.1,923.733
446.157,923.885
447.037,924.022
448.093,924.157
449.1499,924.303
450.03,924.433
451.087,924.562
452.143,924.7
453.0234,924.824
454.08,924.948
455.136,925.08
456.017,925.199
457.073,925.317
458.129,925.443
459.01,925.5572
460.066,925.67
461.123,925.793
462.003,925.904
463.059,926.0129
464.116,926.13
465.1721,926.247
466.052,926.353
467.109,926.458
468.165,926.57
469.0456,926.671
470.102,926.772
471.158,926.88
472.039,926.978
473.095,927.075
474.152,927.179
475.032,927.274
476.088,927.368
477.145,927.468
478.025,927.558
479.081,927.648
480.1379,927.745
481.018,927.833
482.075,927.9204
483.131,928.014
484.0114,928.098
485.0678,928.182
486.124,928.272
487.005,928.354
488.061,928.435
489.117,928.522
490.174,928.608
491.054,928.686
492.111,928.763
493.167,928.846
494.047,928.922
495.104,928.998
496.1601,929.078
497.04,929.151
498.097,929.223
499.153,929.301
500.0,929.371