File: PMMA/Validation_Results/BUW-FZJ/BUW-FZJ_ApproachB_Gasification_q50_Temp_R4.csv
Time,T_back_1
[s],[K]
0.0,291.7
1.056409,291.7
2.112818,291.7
3.16923,291.7
4.04957,291.7
5.10598,291.7
6.16239,291.7
7.04273,291.7
8.09914,291.7
9.15554,291.7
10.0359,291.7
11.0923,291.7
12.1487,291.7
13.029,291.7
14.0855,291.7
15.1419,291.701
16.0222,291.702
17.0786,291.703
18.135,291.706
19.0154,291.71
20.0718,291.716
21.12818,291.725
22.0085,291.737
23.06493,291.753
24.1213,291.775
25.00168,291.802
26.0581,291.835
27.1145,291.88
28.1709,291.934
29.0512,291.994
30.1077,292.064
31.1641,292.153
32.0444,292.246
33.1008,292.353
34.1572,292.485
35.0376,292.62
36.094,292.771
37.1504,292.953
38.0307,293.136
39.0871,293.336
40.1435,293.574
41.0239,293.809
42.0803,294.063
43.1367,294.361
44.017,294.653
45.0735,294.964
46.12986,295.324
47.0102,295.674
48.06661,296.043
49.123,296.467
50.00336,296.875
51.0598,297.303
52.1162,297.79
53.1726,298.3
54.0529,298.787
55.1093,299.293
56.1657,299.864
57.0461,300.407
58.1025,300.968
59.1589,301.6
60.0392,302.197
61.0957,302.811
62.1521,303.499
63.0324,304.147
64.0888,304.811
65.1452,305.554
66.0256,306.249
67.082,306.961
68.1384,307.753
69.0187,308.494
70.0751,309.248
71.13154,310.087
72.0119,310.869
73.06829,311.665
74.1247,312.546
75.005,313.367
76.0614,314.199
77.1179,315.12
78.1743,316.054
79.0546,316.921
80.111,317.799
81.1674,318.768
82.0478,319.666
83.1042,320.574
84.1606,321.575
85.0409,322.501
86.0973,323.437
87.1537,324.466
88.0341,325.419
89.0905,326.379
90.1469,327.435
91.0272,328.411
92.0837,329.394
93.1401,330.474
94.0204,331.471
95.0768,332.474
96.13322,333.576
97.0136,334.593
98.06997,335.615
99.1264,336.737
100.007,337.771
101.063,338.81
102.12,339.95
103.176,341.096
104.056,342.152
105.1127,343.212
106.169,344.374
107.049,345.444
108.106,346.519
109.162,347.695
110.043,348.779
111.099,349.866
112.155,351.056
113.036,352.151
114.092,353.25
115.149,354.453
116.029,355.559
117.085,356.669
118.142,357.884
119.022,359
120.078,360.12
121.1349,361.346
122.015,362.472
123.072,363.602
124.128,364.837
125.0084,365.973
126.065,367.111
127.121,368.356
128.002,369.501
129.058,370.648
130.114,371.902
131.171,373.159
132.051,374.314
133.108,375.472
134.164,376.738
135.044,377.9006
136.101,379.066
137.1571,380.339
138.037,381.509
139.094,382.681
140.15,383.963
141.0306,385.14
142.087,386.319
143.143,387.607
144.024,388.791
145.08,389.977
146.137,391.272
147.017,392.462
148.073,393.654
149.13,394.957
150.01,396.154
151.066,397.352
152.1229,398.662
153.003,399.864
154.06,401.069
155.116,402.3853
156.172,403.704
157.053,404.915
158.109,406.128
159.166,407.453
160.046,408.67
161.102,409.889
162.159,411.221
163.039,412.444
164.096,413.669
165.152,415.007
166.032,416.236
167.089,417.467
168.1451,418.812
169.025,420.046
170.082,421.283
171.138,422.635
172.0186,423.875
173.075,425.118
174.131,426.476
175.012,427.723
176.068,428.971
177.125,430.336
178.005,431.5887
179.061,432.844
180.118,434.215
181.174,435.588
182.054,436.849
183.1109,438.113
184.1673,439.493
185.048,440.7599
186.104,442.029
187.16,443.416
188.0408,444.689
189.097,445.964
190.154,447.358
191.034,448.6371
192.09,449.918
193.147,451.318
194.027,452.604
195.084,453.891
196.14,455.298
197.02,456.589
198.077,457.883
199.1331,459.296
200.013,460.594
201.07,461.894
202.126,463.315
203.0066,464.619
204.063,465.925
205.119,467.352
206.176,468.782
207.056,470.094
208.113,471.409
209.169,472.845
210.049,474.164
211.106,475.484
212.162,476.927
213.042,478.252
214.099,479.578
215.1553,481.028
216.036,482.358
217.092,483.691
218.148,485.147
219.0288,486.484
220.085,487.823
221.142,489.286
222.022,490.628
223.078,491.973
224.135,493.442
225.015,494.791
226.072,496.142
227.128,497.617
228.008,498.971
229.065,500.327
230.1211,501.808
231.001,503.167
232.058,504.528
233.114,506.014
234.171,507.502
235.051,508.868
236.107,510.235
237.164,511.729
238.044,513.099
239.101,514.471
240.157,515.969
241.037,517.344
242.094,518.72
243.15,520.222
244.03,521.6005
245.087,522.98
246.1433,524.485
247.024,525.866
248.08,527.248
249.136,528.756
250.0168,530.139
251.073,531.522
252.13,533.0317
253.01,534.4153
254.066,535.799
255.123,537.307
256.003,538.691
257.06,540.072
258.116,541.5795
259.172,543.085
260.053,544.4652
261.109,545.843
262.1655,547.344
263.046,548.719
264.102,550.092
265.159,551.5875
266.039,552.956
267.095,554.323
268.152,555.812
269.032,557.173
270.089,558.53
271.145,560.007
272.025,561.356
273.082,562.702
274.138,564.164
275.018,565.501
276.075,566.834
277.1313,568.281
278.012,569.604
279.068,570.92
280.124,572.351
281.0048,573.656
282.061,574.955
283.118,576.365
284.174,577.767
285.054,579.045
286.111,580.316
287.167,581.695
288.048,582.95
289.104,584.197
290.16,585.547
291.041,586.776
292.097,587.997
293.1535,589.319
294.034,590.523
295.09,591.718
296.147,593.013
297.027,594.192
298.083,595.363
299.14,596.632
300.02,597.788
301.077,598.936
302.133,600.182
303.013,601.318
304.07,602.447
305.126,603.674
306.006,604.794
307.063,605.909
308.1193,607.123
309.1757,608.333
310.056,609.441
311.112,610.548
312.169,611.755
313.0492,612.863
314.106,613.972
315.162,615.185
316.042,616.302
317.099,617.423
318.155,618.653
319.036,619.7876
320.092,620.931
321.148,622.189
322.029,623.354
323.085,624.53
324.1415,625.829
325.022,627.036
326.078,628.258
327.135,629.613
328.015,630.874
329.071,632.155
330.128,633.579
331.008,634.909
332.065,636.267
333.121,637.781
334.001,639.2
335.058,640.654
336.114,642.282
337.171,643.956
338.051,645.536
339.107,647.163
340.1637,648.995
341.044,650.732
342.1,652.529
343.157,654.565
344.0372,656.506
345.094,658.529
346.15,660.835
347.03,663.053
348.087,665.384
349.143,668.066
350.024,670.677
351.08,673.455
352.136,676.702
353.017,679.92
354.073,683.419
355.1295,687.615
356.01,691.895
357.066,696.744
358.123,702.921
359.003,709.709
360.0594,718.316
361.116,731.096
362.172,750.705
363.053,777.44
364.109,803.4558
365.165,824.45
366.046,838.932
367.102,850.11
368.159,859.721
369.039,866.7614
370.095,872.469
371.1517,877.593
372.032,881.5109
373.088,884.819
374.145,887.898
375.0252,890.332
376.082,892.45
377.138,894.484
378.018,896.139
379.075,897.622
380.131,899.083
381.012,900.3
382.068,901.412
383.124,902.528
384.005,903.473
385.061,904.351
386.117,905.245
387.1739,906.081
388.054,906.805
389.111,907.488
390.167,908.194
391.0474,908.8075
392.104,909.3905
393.16,909.996
394.041,910.525
395.097,911.03
396.153,911.558
397.034,912.021
398.09,912.466
399.147,912.931
400.027,913.342
401.083,913.737
402.1397,914.152
403.02,914.52
404.076,914.875
405.133,915.25
406.0132,915.5824
407.07,915.904
408.126,916.245
409.006,916.548
410.063,916.842
411.119,917.1537
412.176,917.456
413.056,917.726
414.112,917.988
415.169,918.268
416.049,918.517
417.105,918.76
418.1619,919.019
419.042,919.25
420.099,919.475
421.155,919.716
422.0354,919.931
423.092,920.142
424.148,920.367
425.029,920.569
426.085,920.766
427.141,920.977
428.022,921.166
429.078,921.351
430.135,921.549
431.015,921.728
432.071,921.902
433.128,922.088
434.008,922.257
435.064,922.422
436.121,922.599
437.001,922.757
438.0576,922.913
439.114,923.081
440.17,923.245
441.051,923.393
442.107,923.538
443.164,923.694
444.044,923.835
445.1,923.973
446.157,924.121
447.037,924.256
448.093,924.388
449.1499,924.529
450.03,924.656
451.087,924.782
452.143,924.918
453.0234,925.04
454.08,925.1599
455.136,925.289
456.017,925.406
457.073,925.521
458.129,925.645
459.01,925.758
460.066,925.869
461.123,925.989
462.003,926.097
463.059,926.2049
464.116,926.321
465.1721,926.436
466.052,926.54
467.109,926.642
468.165,926.752
469.0456,926.852
470.102,926.951
471.158,927.057
472.039,927.153
473.095,927.249
474.152,927.351
475.032,927.444
476.088,927.535
477.145,927.634
478.025,927.723
479.081,927.811
480.1379,927.907
481.018,927.994
482.075,928.078
483.131,928.17
484.0114,928.253
485.0678,928.336
486.124,928.425
487.005,928.505
488.061,928.584
489.117,928.6698
490.174,928.754
491.054,928.831
492.111,928.907
493.167,928.99
494.047,929.064
495.104,929.137
496.1601,929.216
497.04,929.288
498.097,929.36
499.153,929.436
500.0,929.505