File: PMMA/Validation_Results/BUW-FZJ/BUW-FZJ_PMMA01_Gasification_q50_Mass_R4.csv
Time,Mass
[s],[g]
0.0,25.8362
1.056409,25.8362
2.112818,25.8362
3.16923,25.8362
4.04957,25.836
5.10598,25.8356
6.16239,25.8345
7.04273,25.8325
8.09914,25.8291
9.15554,25.8234
10.0359,25.8167
11.0923,25.8093
12.1487,25.8015
13.029,25.7947
14.0855,25.7879
15.1419,25.7804
16.0222,25.7731
17.0786,25.7656
18.135,25.7567
19.0154,25.748
20.0718,25.7386
21.12818,25.7275
22.0085,25.7163
23.06493,25.7041
24.1213,25.6897
25.00168,25.6752
26.0581,25.6595
27.1145,25.641
28.1709,25.621
29.0512,25.6013
30.1077,25.5802
31.1641,25.5556
32.0444,25.5316
33.1008,25.5062
34.1572,25.477
35.0376,25.4488
36.094,25.4193
37.1504,25.3856
38.0307,25.3534
39.0871,25.3199
40.1435,25.282
41.0239,25.2461
42.0803,25.209
43.1367,25.1673
44.017,25.128
45.0735,25.0876
46.12986,25.0424
47.0102,25.0001
48.06661,24.9568
49.123,24.9085
50.00336,24.8635
51.0598,24.8175
52.1162,24.7666
53.1726,24.7147
54.0529,24.6665
55.1093,24.6175
56.1657,24.5633
57.0461,24.513
58.1025,24.4621
59.1589,24.4059
60.0392,24.3538
61.0957,24.3011
62.1521,24.2431
63.0324,24.1893
64.0888,24.1351
65.1452,24.0754
66.0256,24.0202
67.082,23.9646
68.1384,23.9035
69.0187,23.847
70.0751,23.7901
71.13154,23.7277
72.0119,23.6701
73.06829,23.6121
74.1247,23.5484
75.005,23.4898
76.0614,23.4308
77.1179,23.3661
78.1743,23.301
79.0546,23.241
80.111,23.1808
81.1674,23.1148
82.0478,23.054
83.1042,22.9929
84.1606,22.926
85.0409,22.8644
86.0973,22.8026
87.1537,22.7349
88.0341,22.6726
89.0905,22.6101
90.1469,22.5416
91.0272,22.4787
92.0837,22.4155
93.1401,22.3464
94.0204,22.2828
95.0768,22.219
96.13322,22.1493
97.0136,22.0851
98.06997,22.0208
99.1264,21.9504
100.007,21.8857
101.063,21.8209
102.12,21.7499
103.176,21.6788
104.056,21.6134
105.1127,21.5479
106.169,21.4763
107.049,21.4104
108.106,21.3445
109.162,21.2723
110.043,21.2061
111.099,21.1397
112.155,21.0671
113.036,21.0004
114.092,20.9336
115.149,20.8605
116.029,20.7934
117.085,20.7262
118.142,20.6528
119.022,20.5853
120.078,20.5177
121.1349,20.4439
122.015,20.3761
123.072,20.3081
124.128,20.2339
125.0084,20.1658
126.065,20.0975
127.121,20.0229
128.002,19.9544
129.058,19.8858
130.114,19.8109
131.171,19.7358
132.051,19.6669
133.108,19.5979
134.164,19.5226
135.044,19.4534
136.101,19.3841
137.1571,19.3084
138.037,19.239
139.094,19.1694
140.15,19.0934
141.0306,19.0237
142.087,18.9538
143.143,18.8776
144.024,18.8076
145.08,18.7375
146.137,18.661
147.017,18.5907
148.073,18.5204
149.13,18.4436
150.01,18.3731
151.066,18.3026
152.1229,18.2255
153.003,18.1548
154.06,18.084
155.116,18.0067
156.172,17.9294
157.053,17.8584
158.109,17.7873
159.166,17.7097
160.046,17.6385
161.102,17.5672
162.159,17.4894
163.039,17.418
164.096,17.34655
165.152,17.2685
166.032,17.1969
167.089,17.1253
168.1451,17.047
169.025,16.9753
170.082,16.9034
171.138,16.825
172.0186,16.753
173.075,16.681
174.131,16.6024
175.012,16.5303
176.068,16.4581
177.125,16.3793
178.005,16.307
179.061,16.2346
180.118,16.1556
181.174,16.0765
182.054,16.004
183.1109,15.9314
184.1673,15.8522
185.048,15.7795
186.104,15.7068
187.16,15.6274
188.0408,15.5546
189.097,15.4817
190.154,15.4021
191.034,15.3291
192.09,15.2561
193.147,15.1764
194.027,15.1032
195.084,15.03
196.14,14.9501
197.02,14.8768
198.077,14.8035
199.1331,14.7234
200.013,14.65
201.07,14.5764
202.126,14.4962
203.0066,14.4226
204.063,14.349
205.119,14.2687
206.176,14.1882
207.056,14.1145
208.113,14.0406
209.169,13.96
210.049,13.8861
211.106,13.8121
212.162,13.7314
213.042,13.6573
214.099,13.5832
215.1553,13.5023
216.036,13.4281
217.092,13.3539
218.148,13.2728
219.0288,13.1985
220.085,13.1241
221.142,13.0429
222.022,12.96837
223.078,12.8938
224.135,12.8125
225.015,12.7378
226.072,12.66316
227.128,12.5816
228.008,12.5069
229.065,12.4321
230.1211,12.3504
231.001,12.2755
232.058,12.20052
233.114,12.1187
234.171,12.0368
235.051,11.9617
236.107,11.8866
237.164,11.8046
238.044,11.7293
239.101,11.6541
240.157,11.5719
241.037,11.4965
242.094,11.4211
243.15,11.3388
244.03,11.2633
245.087,11.1877
246.1433,11.1053
247.024,11.0296
248.08,10.9539
249.136,10.8712
250.0168,10.7953
251.073,10.7194
252.13,10.6365
253.01,10.5604
254.066,10.4841
255.123,10.4008
256.003,10.3243
257.06,10.2477
258.116,10.1638
259.172,10.0797
260.053,10.00231
261.109,9.9246
262.1655,9.83945
263.046,9.761023
264.102,9.682204
265.159,9.595766
266.039,9.51607
267.095,9.435892
268.152,9.347859
269.032,9.26662
270.089,9.18479
271.145,9.09485
272.025,9.01174
273.082,8.92794
274.138,8.83568
275.018,8.75029
276.075,8.66399
277.1313,8.5688
278.012,8.4805
279.068,8.39113
280.124,8.2927
281.0048,8.20158
282.061,8.10953
283.118,8.00806
284.174,7.905467
285.054,7.8105
286.111,7.71461
287.167,7.60904
288.048,7.51144
289.104,7.413032
290.16,7.30487
291.041,7.20503
292.097,7.10452
293.1535,6.99424
294.034,6.89259
295.09,6.79043
296.147,6.678494
297.027,6.575469
298.083,6.472064
299.14,6.3589
300.02,6.25491
301.077,6.15062
302.133,6.0366
303.013,5.9319
304.07,5.82702
305.126,5.71244
306.006,5.60731
307.063,5.50209
308.1193,5.38723
309.1757,5.27233
310.056,5.16697
311.112,5.06161
312.169,4.94667
313.0492,4.84136
314.106,4.7361
315.162,4.621329
316.042,4.51622
317.099,4.411207
318.155,4.29677
319.036,4.19203
320.092,4.08743
321.148,3.973496
322.029,3.86923
323.085,3.76518
324.1415,3.65191
325.022,3.54831
326.078,3.44498
327.135,3.33255
328.015,3.22974
329.071,3.12728
330.128,3.01587
331.008,2.91406
332.065,2.81265
333.121,2.70246
334.001,2.60183
335.058,2.501665
336.114,2.39289
337.171,2.28463
338.051,2.18598
339.107,2.0878
340.1637,1.98129
341.044,1.88435
342.1,1.78797
343.157,1.68353
344.0372,1.5886
345.094,1.49426
346.15,1.39228
347.03,1.29968
348.087,1.20778
349.143,1.10883
350.024,1.01897
351.08,0.930151
352.136,0.834705
353.017,0.748283
354.073,0.66367
355.1295,0.572749
356.01,0.49151
357.066,0.411793
358.123,0.327847
359.003,0.253942
360.0594,0.184141
361.116,0.113723
362.172,0.053834
363.053,0.014637
364.109,0.001035
365.165,1e-06
366.046,0.0
367.102,0.0
368.159,0.0
369.039,0.0
370.095,0.0
371.1517,0.0
372.032,0.0
373.088,0.0
374.145,0.0
375.0252,0.0
376.082,0.0
377.138,0.0
378.018,0.0
379.075,0.0
380.131,0.0
381.012,0.0
382.068,0.0
383.124,0.0
384.005,0.0
385.061,0.0
386.117,0.0
387.1739,0.0
388.054,0.0
389.111,0.0
390.167,0.0
391.0474,0.0
392.104,0.0
393.16,0.0
394.041,0.0
395.097,0.0
396.153,0.0
397.034,0.0
398.09,0.0
399.147,0.0
400.027,0.0
401.083,0.0
402.1397,0.0
403.02,0.0
404.076,0.0
405.133,0.0
406.0132,0.0
407.07,0.0
408.126,0.0
409.006,0.0
410.063,0.0
411.119,0.0
412.176,0.0
413.056,0.0
414.112,0.0
415.169,0.0
416.049,0.0
417.105,0.0
418.1619,0.0
419.042,0.0
420.099,0.0
421.155,0.0
422.0354,0.0
423.092,0.0
424.148,0.0
425.029,0.0
426.085,0.0
427.141,0.0
428.022,0.0
429.078,0.0
430.135,0.0
431.015,0.0
432.071,0.0
433.128,0.0
434.008,0.0
435.064,0.0
436.121,0.0
437.001,0.0
438.0576,0.0
439.114,0.0
440.17,0.0
441.051,0.0
442.107,0.0
443.164,0.0
444.044,0.0
445.1,0.0
446.157,0.0
447.037,0.0
448.093,0.0
449.1499,0.0
450.03,0.0
451.087,0.0
452.143,0.0
453.0234,0.0
454.08,0.0
455.136,0.0
456.017,0.0
457.073,0.0
458.129,0.0
459.01,0.0
460.066,0.0
461.123,0.0
462.003,0.0
463.059,0.0
464.116,0.0
465.1721,0.0
466.052,0.0
467.109,0.0
468.165,0.0
469.0456,0.0
470.102,0.0
471.158,0.0
472.039,0.0
473.095,0.0
474.152,0.0
475.032,0.0
476.088,0.0
477.145,0.0
478.025,0.0
479.081,0.0
480.1379,0.0
481.018,0.0
482.075,0.0
483.131,0.0
484.0114,0.0
485.0678,0.0
486.124,0.0
487.005,0.0
488.061,0.0
489.117,0.0
490.174,0.0
491.054,0.0
492.111,0.0
493.167,0.0
494.047,0.0
495.104,0.0
496.1601,0.0
497.04,0.0
498.097,0.0
499.153,0.0
500.0,0.0