File: PMMA/Validation_Results/BUW-FZJ/BUW-FZJ_ApproachB_Gasification_q50_Temp_R5.csv
Time,T_back_1
[s],[K]
0.0,291.67
1.056409,291.67
2.112818,291.67
3.16923,291.67
4.04957,291.67
5.10598,291.67
6.16239,291.67
7.04273,291.67
8.09914,291.67
9.15554,291.67
10.0359,291.67
11.0923,291.67
12.1487,291.67
13.029,291.67
14.0855,291.67
15.1419,291.67
16.0222,291.671
17.0786,291.672
18.135,291.674
19.0154,291.676
20.0718,291.68
21.12818,291.687
22.0085,291.695
23.06493,291.706
24.1213,291.723
25.00168,291.742
26.0581,291.767
27.1145,291.801
28.1709,291.842
29.0512,291.888
30.1077,291.942
31.1641,292.012
32.0444,292.086
33.1008,292.171
34.1572,292.276
35.0376,292.385
36.094,292.507
37.1504,292.656
38.0307,292.806
39.0871,292.971
40.1435,293.168
41.0239,293.365
42.0803,293.577
43.1367,293.828
44.017,294.074
45.0735,294.337
46.12986,294.644
47.0102,294.943
48.06661,295.259
49.123,295.624
50.00336,295.976
51.0598,296.346
52.1162,296.77
53.1726,297.214
54.0529,297.639
55.1093,298.082
56.1657,298.585
57.0461,299.063
58.1025,299.558
59.1589,300.117
60.0392,300.646
61.0957,301.192
62.1521,301.806
63.0324,302.384
64.0888,302.978
65.1452,303.644
66.0256,304.269
67.082,304.909
68.1384,305.623
69.0187,306.292
70.0751,306.975
71.13154,307.736
72.0119,308.446
73.06829,309.169
74.1247,309.972
75.005,310.72
76.0614,311.481
77.1179,312.323
78.1743,313.179
79.0546,313.975
80.111,314.781
81.1674,315.672
82.0478,316.499
83.1042,317.337
84.1606,318.26
85.0409,319.117
86.0973,319.982
87.1537,320.936
88.0341,321.819
89.0905,322.71
90.1469,323.692
91.0272,324.599
92.0837,325.514
93.1401,326.52
94.0204,327.45
95.0768,328.387
96.13322,329.417
97.0136,330.367
98.06997,331.324
99.1264,332.375
100.007,333.344
101.063,334.319
102.12,335.389
103.176,336.465
104.056,337.458
105.1127,338.455
106.169,339.549
107.049,340.557
108.106,341.569
109.162,342.679
110.043,343.701
111.099,344.728
112.155,345.852
113.036,346.888
114.092,347.927
115.149,349.065
116.029,350.113
117.085,351.164
118.142,352.315
119.022,353.374
120.078,354.437
121.1349,355.6
122.015,356.669
123.072,357.742
124.128,358.916
125.0084,359.996
126.065,361.079
127.121,362.263
128.002,363.352
129.058,364.445
130.114,365.64
131.171,366.838
132.051,367.939
133.108,369.043
134.164,370.251
135.044,371.36
136.101,372.473
137.1571,373.689
138.037,374.807
139.094,375.927
140.15,377.152
141.0306,378.277
142.087,379.405
143.143,380.638
144.024,381.7702
145.08,382.905
146.137,384.146
147.017,385.286
148.073,386.428
149.13,387.677
150.01,388.823
151.066,389.972
152.1229,391.228
153.003,392.382
154.06,393.538
155.116,394.801
156.172,396.067
157.053,397.229
158.109,398.394
159.166,399.667
160.046,400.837
161.102,402.008
162.159,403.288
163.039,404.464
164.096,405.642
165.152,406.929
166.032,408.111
167.089,409.295
168.1451,410.589
169.025,411.778
170.082,412.968
171.138,414.269
172.0186,415.464
173.075,416.661
174.131,417.969
175.012,419.17
176.068,420.373
177.125,421.688
178.005,422.896
179.061,424.106
180.118,425.428
181.174,426.753
182.054,427.969
183.1109,429.188
184.1673,430.519
185.048,431.742
186.104,432.967
187.16,434.306
188.0408,435.536
189.097,436.767
190.154,438.1131
191.034,439.349
192.09,440.587
193.147,441.94
194.027,443.1819
195.084,444.426
196.14,445.786
197.02,447.035
198.077,448.2861
199.1331,449.653
200.013,450.909
201.07,452.166
202.126,453.541
203.0066,454.803
204.063,456.068
205.119,457.449
206.176,458.834
207.056,460.105
208.113,461.378
209.169,462.77
210.049,464.048
211.106,465.328
212.162,466.727
213.042,468.011
214.099,469.297
215.1553,470.703
216.036,471.994
217.092,473.287
218.148,474.7
219.0288,475.998
220.085,477.2975
221.142,478.718
222.022,480.022
223.078,481.329
224.135,482.756
225.015,484.067
226.072,485.38
227.128,486.815
228.008,488.132
229.065,489.4516
230.1211,490.893
231.001,492.217
232.058,493.542
233.114,494.99
234.171,496.4402
235.051,497.772
236.107,499.105
237.164,500.562
238.044,501.899
239.101,503.238
240.157,504.701
241.037,506.044
242.094,507.389
243.15,508.859
244.03,510.207
245.087,511.557
246.1433,513.0314
247.024,514.385
248.08,515.739
249.136,517.219
250.0168,518.576
251.073,519.9353
252.13,521.419
253.01,522.78
254.066,524.142
255.123,525.629
256.003,526.993
257.06,528.358
258.116,529.848
259.172,531.339
260.053,532.706
261.109,534.074
262.1655,535.566
263.046,536.934
264.102,538.301
265.159,539.792
266.039,541.158
267.095,542.524
268.152,544.0127
269.032,545.376
270.089,546.738
271.145,548.223
272.025,549.582
273.082,550.939
274.138,552.418
275.018,553.772
276.075,555.123
277.1313,556.595
278.012,557.941
279.068,559.2825
280.124,560.742
281.0048,562.076
282.061,563.406
283.118,564.854
284.174,566.296
285.054,567.613
286.111,568.926
287.167,570.352
288.048,571.654
289.104,572.951
290.16,574.359
291.041,575.644
292.097,576.922
293.1535,578.309
294.034,579.574
295.09,580.831
296.147,582.195
297.027,583.436
298.083,584.669
299.14,586.005
300.02,587.221
301.077,588.429
302.133,589.738
303.013,590.93
304.07,592.113
305.126,593.396
306.006,594.563
307.063,595.723
308.1193,596.981
309.1757,598.23
310.056,599.368
311.112,600.5
312.169,601.729
313.0492,602.849
314.106,603.964
315.162,605.177
316.042,606.284
317.099,607.389
318.155,608.591
319.036,609.692
320.092,610.793
321.148,611.9932
322.029,613.095
323.085,614.199
324.1415,615.407
325.022,616.518
326.078,617.635
327.135,618.86
328.015,619.991
329.071,621.13
330.128,622.385
331.008,623.546
332.065,624.72
333.121,626.016
334.001,627.22
335.058,628.441
336.114,629.792
337.171,631.1665
338.051,632.448
339.107,633.753
340.1637,635.204
341.044,636.562
342.1,637.951
343.157,639.501
344.0372,640.957
345.094,642.451
346.15,644.125
347.03,645.705
348.087,647.332
349.143,649.165
350.024,650.9024
351.08,652.701
352.136,654.74
353.017,656.679
354.073,658.706
355.1295,661.017
356.01,663.234
357.066,665.571
358.123,668.262
359.003,670.87
360.0594,673.658
361.116,676.917
362.172,680.447
363.053,683.979
364.109,687.868
365.165,692.591
366.046,697.504
367.102,703.256
368.159,710.82
369.039,719.642
370.095,731.722
371.1517,751.589
372.032,778.003
373.088,803.412
374.145,824.098
375.0252,838.45
376.082,849.578
377.138,859.184
378.018,866.243
379.075,871.979
380.131,877.139
381.012,881.088
382.068,884.426
383.124,887.539
384.005,889.998
385.061,892.14
386.117,894.197
387.1739,896.011
388.054,897.501
389.111,898.8447
390.167,900.178
391.0474,901.295
392.104,902.322
393.16,903.358
394.041,904.2395
395.097,905.063
396.153,905.906
397.034,906.6346
398.09,907.323
399.147,908.034
400.027,908.653
401.083,909.24
402.1397,909.849
403.02,910.381
404.076,910.889
405.133,911.419
406.0132,911.885
407.07,912.332
408.126,912.8
409.006,913.212
410.063,913.61
411.119,914.028
412.176,914.43
413.056,914.786
414.112,915.131
415.169,915.494
416.049,915.817
417.105,916.13
418.1619,916.461
419.042,916.757
420.099,917.043
421.155,917.3468
422.0354,917.618
423.092,917.881
424.148,918.1616
425.029,918.4117
426.085,918.6554
427.141,918.9152
428.022,919.147
429.078,919.3738
430.135,919.616
431.015,919.832
432.071,920.043
433.128,920.269
434.008,920.471
435.064,920.669
436.121,920.881
437.001,921.071
438.0576,921.257
439.114,921.455
440.17,921.6503
441.051,921.825
442.107,921.996
443.164,922.18
444.044,922.346
445.1,922.508
446.157,922.681
447.037,922.8378
448.093,922.991
449.1499,923.157
450.03,923.305
451.087,923.451
452.143,923.6071
453.0234,923.748
454.08,923.887
455.136,924.035
456.017,924.17
457.073,924.303
458.129,924.4444
459.01,924.572
460.066,924.698
461.123,924.834
462.003,924.957
463.059,925.077
464.116,925.207
465.1721,925.334
466.052,925.45
467.109,925.563
468.165,925.687
469.0456,925.799
470.102,925.909
471.158,926.027
472.039,926.135
473.095,926.242
474.152,926.357
475.032,926.461
476.088,926.564
477.145,926.674
478.025,926.774
479.081,926.873
480.1379,926.98
481.018,927.076
482.075,927.172
483.131,927.2751
484.0114,927.368
485.0678,927.459
486.124,927.558
487.005,927.6478
488.061,927.736
489.117,927.832
490.174,927.927
491.054,928.012
492.111,928.095
493.167,928.187
494.047,928.2694
495.104,928.351
496.1601,928.439
497.04,928.518
498.097,928.597
499.153,928.682
500.0,928.757