File: PMMA/Validation_Results/BUW-FZJ/BUW-FZJ_Gasification_q50_Temp_Kaowool.csv
Time,Temperature_5-72mm,Temperature_11-44mm,Temperature_17-16mm
0.0,290.65,290.65,290.65
1.0564,290.65,290.65,290.65
2.1128,290.65,290.65,290.65
3.1692,290.65,290.65,290.65
4.0496,290.6508,290.65,290.65
5.106,290.6601,290.65,290.65
6.1624,290.7092,290.65,290.65
7.0427,290.8386,290.65,290.65
8.0991,291.1151,290.65,290.65
9.1555,291.6434,290.65,290.65
10.0359,292.3809,290.65,290.65
11.0923,293.4027,290.65,290.65
12.1487,294.843,290.6501,290.65
13.029,296.4624,290.6502,290.65
14.0855,298.3719,290.6506,290.65
15.1419,300.7531,290.6516,290.65
16.0222,303.1892,290.6532,290.65
17.0786,305.8554,290.6561,290.65
18.135,308.9886,290.6613,290.65
19.0154,312.0435,290.6687,290.65
20.0718,315.258,290.6797,290.65
21.1282,318.9152,290.6968,290.65
22.0085,322.3859,290.7183,290.65
23.0649,325.9563,290.7468,290.6499
24.1213,329.9413,290.7871,290.6499
25.0017,333.6622,290.8338,290.6499
26.0581,337.4372,290.8915,290.6499
27.1145,341.6009,290.9679,290.6499
28.1709,345.8001,291.0603,290.6499
29.0512,349.6704,291.1598,290.65
30.1077,353.5531,291.2755,290.65
31.1641,357.7941,291.4205,290.6502
32.0444,361.6801,291.5715,290.6505
33.1008,365.5588,291.7416,290.6509
34.1572,369.7765,291.9487,290.6515
35.0376,373.626,292.1591,290.6522
36.094,377.4548,292.3906,290.6533
37.1504,381.6058,292.6666,290.6547
38.0307,385.3846,292.9415,290.6564
39.0871,389.1347,293.2387,290.6586
40.1435,393.1923,293.5874,290.6616
41.0239,396.8795,293.9297,290.6649
42.0803,400.533,294.2945,290.6689
43.1367,404.4805,294.7173,290.6742
44.017,408.0633,295.1273,290.68
45.0735,411.6095,295.5598,290.6868
46.1299,415.4375,296.0558,290.6954
47.0102,418.9089,296.5325,290.7046
48.0666,422.3424,297.0309,290.7151
49.123,426.0463,297.598,290.7283
50.0034,429.4033,298.1389,290.7419
51.0598,432.7218,298.7005,290.7573
52.1162,436.3003,299.3352,290.7762
53.1726,439.8346,299.9929,290.7974
54.0529,443.0364,300.6151,290.8189
55.1093,446.2005,301.2563,290.8428
56.1657,449.6112,301.9758,290.8714
57.0461,452.7005,302.6534,290.9002
58.1025,455.7528,303.3485,290.9316
59.1589,459.0427,304.1253,290.9689
60.0392,462.0222,304.8539,291.0061
61.0957,464.966,305.5984,291.0462
62.1521,468.1389,306.4275,291.0934
63.0324,471.0123,307.2026,291.1399
64.0888,473.8514,307.9921,291.1898
65.1452,476.9114,308.8687,291.248
66.0256,479.6828,309.6858,291.3049
67.082,482.421,310.516,291.3655
68.1384,485.3726,311.4353,291.4357
69.0187,488.046,312.2901,291.5039
70.0751,490.6879,313.1565,291.576
71.1315,493.5362,314.1139,291.659
72.0119,496.1161,315.0023,291.7392
73.0683,498.6649,315.901,291.8236
74.1247,501.414,316.8921,291.9202
75.005,503.9044,317.8102,292.013
76.0614,506.3659,318.7373,292.1102
77.1179,509.02,319.7581,292.221
78.1743,511.642,320.7884,292.337
79.0546,514.0177,321.7408,292.4478
80.111,516.3665,322.7007,292.5631
81.1674,518.8996,323.7556,292.6938
82.0478,521.1957,324.7294,292.8183
83.1042,523.4658,325.7096,292.9474
84.1606,525.9144,326.7857,293.0933
85.0409,528.134,327.7778,293.2317
86.0973,530.3292,328.7755,293.3748
87.1537,532.6978,329.8694,293.5361
88.0341,534.8437,330.8771,293.6886
89.0905,536.9608,331.8894,293.8459
90.1469,539.2385,332.9985,294.0226
91.0272,541.2977,334.0191,294.1893
92.0837,543.3281,335.0436,294.3607
93.1401,545.5126,336.165,294.5528
94.0204,547.4877,337.1963,294.7337
95.0768,549.4371,338.2306,294.9192
96.1332,551.5348,339.3621,295.1268
97.0136,553.4314,340.4018,295.3217
98.07,555.3032,341.444,295.5212
99.1264,557.3182,342.5832,295.744
100.0067,559.1416,343.6295,295.9528
101.0631,560.9412,344.6775,296.1662
102.1195,562.8798,345.8226,296.404
103.176,564.7913,346.9693,296.647
104.0563,566.5206,348.0217,296.8742
105.1127,568.228,349.0751,297.106
106.1691,570.0693,350.2252,297.3636
107.0494,571.7346,351.2802,297.6042
108.1059,573.3806,352.3358,297.8492
109.1623,575.1524,353.4878,298.1212
110.0426,576.7573,354.5441,298.3748
111.099,578.343,355.6006,298.6327
112.1554,580.0521,356.7531,298.9186
113.0358,581.5997,357.8095,299.1849
114.0922,583.1298,358.8656,299.4553
115.1486,584.7783,360.0173,299.7548
116.0289,586.2722,361.0726,300.0333
117.0853,587.748,362.1273,300.3159
118.1417,589.3398,363.2771,300.6285
119.0221,590.7833,364.3304,300.919
120.0785,592.2091,365.3827,301.2134
121.1349,593.7465,366.5296,301.5387
122.0152,595.14,367.5799,301.8407
123.0716,596.5184,368.629,302.1464
124.1281,598.0051,369.7721,302.484
125.0084,599.3533,370.8187,302.7971
126.0648,600.6865,371.8638,303.1138
127.1212,602.125,373.0023,303.4631
128.0016,603.428,374.0444,303.7869
129.058,604.7194,375.0848,304.1141
130.1144,606.1117,376.218,304.4747
131.1708,607.4874,377.3492,304.8393
132.0511,608.7365,378.3842,305.1768
133.1075,609.9715,379.4175,305.5176
134.1639,611.3052,380.5425,305.8928
135.0443,612.5151,381.5718,306.24
136.1007,613.7124,382.5991,306.5902
137.1571,615.0051,383.7176,306.9757
138.0374,616.1776,384.7407,307.3321
139.0938,617.3387,385.7616,307.6915
140.1503,618.5929,386.873,308.0867
141.0306,619.7301,387.8895,308.4519
142.087,620.8566,388.9038,308.8199
143.1434,622.0735,390.0077,309.2244
144.0238,623.1778,391.0173,309.598
145.0802,624.2712,392.0245,309.9743
146.1366,625.4528,393.1206,310.3877
147.0169,626.5248,394.123,310.7693
148.0733,627.5872,395.1228,311.1534
149.1297,628.7345,396.2109,311.5752
150.0101,629.7766,397.2058,311.9643
151.0665,630.8086,398.1981,312.3559
152.1229,631.9239,399.2778,312.7857
153.0032,632.9367,400.265,313.182
154.0596,633.9398,401.2495,313.5807
155.1161,635.0247,402.3207,314.018
156.1725,636.0987,403.3888,314.4579
157.0528,637.0741,404.3653,314.8633
158.1092,638.041,405.339,315.2709
159.1656,639.0859,406.3984,315.7178
160.046,640.0352,407.3667,316.1296
161.1024,640.9757,408.3323,316.5433
162.1588,641.9928,409.3827,316.9968
163.0391,642.9174,410.3428,317.4145
164.0955,643.8333,411.3002,317.8341
165.1519,644.8236,412.3415,318.2938
166.0323,645.7232,413.2933,318.7171
167.0887,646.6159,414.2423,319.1421
168.1451,647.5807,415.2745,319.6077
169.0254,648.4587,416.2179,320.0363
170.0818,649.3276,417.1585,320.4665
171.1383,650.2681,418.1815,320.9376
172.0186,651.1231,419.1164,321.371
173.075,651.9706,420.0485,321.806
174.1314,652.8881,421.0622,322.2823
175.0118,653.7221,421.9886,322.7203
176.0682,654.5482,422.9122,323.1599
177.1246,655.4433,423.9166,323.6409
178.0049,656.256,424.8345,324.0833
179.0613,657.0636,425.7496,324.5271
180.1177,657.9359,426.7447,325.0126
181.1742,658.8015,427.7365,325.4997
182.0545,659.5884,428.6428,325.9475
183.1109,660.3692,429.5463,326.3965
184.1673,661.2138,430.5288,326.8876
185.0476,661.9823,431.4266,327.339
186.104,662.7447,432.3215,327.7916
187.1605,663.5696,433.2947,328.2865
188.0408,664.3201,434.1839,328.7413
189.0972,665.065,435.0703,329.1972
190.1536,665.8709,436.0342,329.6956
191.034,666.6042,436.915,330.1536
192.0904,667.332,437.7929,330.6125
193.1468,668.1196,438.7475,331.1141
194.0271,668.8361,439.6198,331.575
195.0835,669.5476,440.4892,332.0367
196.1399,670.3178,441.4346,332.5413
197.0203,671.0182,442.2984,333.0048
198.0767,671.7135,443.1594,333.4691
199.1331,672.4667,444.0957,333.9765
200.0134,673.1524,444.9511,334.4424
201.0698,673.8322,445.8037,334.909
202.1263,674.5688,446.7308,335.4189
203.0066,675.2387,447.5779,335.887
204.063,675.9049,448.4222,336.3558
205.1194,676.6256,449.3403,336.868
206.1758,677.3408,450.2552,337.3809
207.0562,677.9918,451.0911,337.8516
208.1126,678.6384,451.9242,338.323
209.169,679.3386,452.8301,338.8379
210.0493,679.9756,453.6578,339.3104
211.1057,680.6087,454.4828,339.7835
212.1621,681.2942,455.3797,340.3002
213.0425,681.9185,456.1993,340.7743
214.0989,682.5379,457.0161,341.2488
215.1553,683.2094,457.9043,341.7671
216.0356,683.8207,458.7158,342.2426
217.092,684.4277,459.5246,342.7185
218.1485,685.0857,460.404,343.2381
219.0288,685.6847,461.2075,343.7148
220.0852,686.2796,462.0083,344.1919
221.1416,686.9242,462.8791,344.7127
222.022,687.5109,463.6746,345.1905
223.0784,688.0939,464.4676,345.6686
224.1348,688.7259,465.3298,346.1905
225.0151,689.3012,466.1175,346.6692
226.0715,689.8725,466.9027,347.1481
227.1279,690.492,467.7564,347.6709
228.0083,691.0564,468.5363,348.1504
229.0647,691.6166,469.3138,348.63
230.1211,692.2244,470.1591,349.1535
231.0014,692.7775,470.9314,349.6336
232.0578,693.3273,471.7011,350.1139
233.1143,693.9232,472.5381,350.638
234.1707,694.5146,473.3722,351.1623
235.051,695.0539,474.1343,351.643
236.1074,695.5894,474.8938,352.1238
237.1638,696.1706,475.7197,352.6485
238.0442,696.6988,476.4743,353.1296
239.1006,697.2251,477.2265,353.6107
240.157,697.7949,478.0443,354.1356
241.0373,698.3138,478.7915,354.6169
242.0937,698.8298,479.5362,355.0982
243.1501,699.3895,480.346,355.6233
244.0305,699.8989,481.086,356.1047
245.0869,700.4051,481.8234,356.5861
246.1433,700.9549,482.6253,357.1112
247.0236,701.4546,483.358,357.5926
248.08,701.9526,484.0883,358.0739
249.1365,702.4914,484.8824,358.599
250.0168,702.9834,485.608,359.0802
251.0732,703.4713,486.3312,359.5614
252.1296,704.0016,487.1176,360.0863
253.01,704.4838,487.8361,360.5673
254.0664,704.964,488.5523,361.0483
255.1228,705.484,489.3311,361.5729
256.0031,705.9588,490.0426,362.0537
257.0595,706.4298,490.7519,362.5343
258.1159,706.9417,491.5232,363.0585
259.1723,707.4494,492.2918,363.5826
260.0527,707.9129,492.9941,364.0628
261.1091,708.3732,493.6941,364.5429
262.1655,708.8731,494.4553,365.0664
263.0458,709.3283,495.1509,365.5462
264.1023,709.781,495.8442,366.0258
265.1587,710.2722,496.5981,366.5487
266.039,710.7193,497.287,367.0279
267.0954,711.1652,497.9736,367.5069
268.1518,711.6476,498.7204,368.0292
269.0322,712.0883,499.4027,368.5078
270.0886,712.5255,500.0828,368.9861
271.145,713.0011,500.8224,369.5077
272.0253,713.4332,501.4983,369.9855
273.0817,713.8642,502.172,370.4631
274.1381,714.331,502.9045,370.9839
275.0185,714.7568,503.5739,371.461
276.0749,715.1806,504.2413,371.9378
277.1313,715.6397,504.967,372.4576
278.0116,716.0593,505.63,372.9339
279.0681,716.4752,506.2911,373.4099
280.1245,716.9279,507.0098,373.9288
281.0048,717.3398,507.6667,374.4042
282.0612,717.7498,508.3216,374.8792
283.1176,718.1951,509.0337,375.3972
284.174,718.6371,509.7433,375.9147
285.0544,719.0413,510.3919,376.3888
286.1108,719.4418,511.0385,376.8626
287.1672,719.8778,511.7415,377.379
288.0475,720.2748,512.3841,377.8521
289.1039,720.6693,513.0246,378.3249
290.1603,721.0992,513.7211,378.8402
291.0407,721.4888,514.3577,379.3123
292.0971,721.8788,514.9923,379.784
293.1535,722.3003,515.6824,380.2981
294.0338,722.685,516.313,380.7691
295.0903,723.0692,516.9418,381.2397
296.1467,723.4836,517.6255,381.7526
297.027,723.8638,518.2503,382.2224
298.0834,724.2408,518.8733,382.6919
299.1398,724.6496,519.5508,383.2036
300.0202,725.0245,520.1699,383.6722
301.0766,725.3949,520.7872,384.1405
302.133,725.7987,521.4586,384.6509
303.0133,726.1672,522.0719,385.1183
304.0697,726.5319,522.6836,385.5853
305.1261,726.9305,523.3489,386.0944
306.0065,727.2922,523.9567,386.5606
307.0629,727.6523,524.5628,387.0264
308.1193,728.0455,525.2221,387.5341
309.1757,728.4334,525.879,388.0413
310.056,728.7892,526.4796,388.5058
311.1125,729.1438,527.0784,388.9698
312.1689,729.5259,527.7296,389.4756
313.0492,729.8774,528.3247,389.9387
314.1056,730.226,528.9181,390.4015
315.162,730.603,529.5633,390.9058
316.0424,730.9504,530.153,391.3676
317.0988,731.2926,530.7413,391.829
318.1552,731.6648,531.3807,392.3318
319.0355,732.0076,531.9653,392.7923
320.0919,732.3445,532.5483,393.2523
321.1483,732.7116,533.182,393.7537
322.0287,733.0502,533.7614,394.2127
323.0851,733.3813,534.3386,394.6714
324.1415,733.7438,534.9661,395.1712
325.0218,734.0778,535.5393,395.6288
326.0783,734.4038,536.1096,396.086
327.1347,734.7615,536.7306,396.5843
328.015,735.092,537.2966,397.0405
329.0714,735.4127,537.8611,397.4963
330.1278,735.7642,538.4749,397.993
331.0082,736.0916,539.0342,398.4478
332.0646,736.409,539.5932,398.902
333.121,736.754,540.1988,399.3971
334.0013,737.0766,540.7531,399.8504
335.0577,737.391,541.3049,400.3033
336.1141,737.7321,541.9043,400.7967
337.1705,738.0756,542.5024,401.2896
338.0509,738.3875,543.0471,401.7409
339.1073,738.697,543.5915,402.1917
340.1637,739.0347,544.1816,402.6829
341.044,739.3422,544.7217,403.1327
342.1005,739.6486,545.259,403.582
343.1569,739.9811,545.8433,404.0716
344.0372,740.2835,546.3772,404.5198
345.0936,740.5874,546.9084,404.9676
346.15,740.9156,547.4867,405.4555
347.0304,741.2128,548.0139,405.9022
348.0868,741.5138,548.5409,406.3484
349.1432,741.8389,549.1116,406.8346
350.0235,742.1298,549.6343,407.2798
351.0799,742.4278,550.1539,407.7244
352.1363,742.7493,550.7202,408.2089
353.0167,743.0363,551.2363,408.6525
354.0731,743.3299,551.7511,409.0956
355.1295,743.6478,552.3103,409.5784
356.0098,743.9327,552.8211,410.0204
357.0663,744.2201,553.3302,410.4619
358.1226,744.5346,553.8836,410.943
359.003,744.8181,554.3895,411.3834
360.0594,745.0993,554.8929,411.8233
361.1158,745.4099,555.4409,412.3026
362.1722,745.7164,555.986,412.7813
363.0526,745.9936,556.4849,413.2196
364.109,746.274,556.9809,413.6573
365.1654,746.578,557.521,414.1343
366.0457,746.853,558.0133,414.5709
367.1021,747.1273,558.5057,415.0071
368.1585,747.4285,559.039,415.4823
369.0389,747.7013,559.5277,415.9173
370.0953,747.9714,560.0133,416.3518
371.1517,748.2678,560.5424,416.8252
372.032,748.5382,561.0246,417.2587
373.0884,748.806,561.5066,417.6915
374.1449,749.0968,562.029,418.1632
375.0252,749.3649,562.5076,418.595
376.0816,749.6306,562.9832,419.0262
377.138,749.9174,563.5018,419.4961
378.0184,750.1809,563.9741,419.9262
379.0748,750.4443,564.4461,420.3558
380.1312,750.7288,564.958,420.8239
381.0115,750.9875,565.4269,421.2524
382.0679,751.2475,565.893,421.6804
383.1243,751.5298,566.4006,422.1467
384.0047,751.7862,566.8637,422.5735
385.0611,752.0413,567.3259,422.9998
386.1175,752.3207,567.828,423.4643
387.1739,752.598,568.3284,423.9282
388.0542,752.8503,568.786,424.3528
389.1106,753.1018,569.241,424.7769
390.1671,753.3767,569.7368,425.2389
391.0474,753.6268,570.1887,425.6619
392.1038,753.8752,570.6407,426.0843
393.1602,754.1458,571.1304,426.5445
394.0406,754.3941,571.5795,426.9658
395.097,754.6403,572.0254,427.3866
396.1534,754.907,572.5114,427.845
397.0337,755.1513,572.9544,428.2646
398.0901,755.3958,573.3972,428.6837
399.1465,755.6605,573.8779,429.1403
400.0269,755.9012,574.3173,429.5583
401.0833,756.142,574.7551,429.9757
402.1397,756.4045,575.2312,430.4305
403.02,756.6433,575.6665,430.8468
404.0764,756.8808,576.0996,431.2625
405.1329,757.1395,576.5717,431.7155
406.0132,757.3763,577.002,432.1301
407.0696,757.6119,577.4319,432.5442
408.126,757.8671,577.8986,432.9953
409.0064,758.1006,578.3253,433.4083
410.0628,758.3341,578.7509,433.8207
411.1192,758.5873,579.2132,434.27
412.1756,758.8388,579.6744,434.7186
413.0559,759.0686,580.0951,435.1294
414.1123,759.2988,580.5153,435.5395
415.1687,759.5484,580.9713,435.9863
416.0491,759.7758,581.3891,436.3954
417.1055,760.0022,581.8046,436.8038
418.1619,760.2493,582.2568,437.2488
419.0422,760.4749,582.6704,437.6562
420.0986,760.6992,583.0818,438.063
421.1551,760.9425,583.5301,438.5062
422.0354,761.1657,583.9388,438.9118
423.0918,761.3883,584.3476,439.317
424.1482,761.6296,584.7912,439.7583
425.0286,761.8498,585.1966,440.1623
426.085,762.0691,585.6011,440.5658
427.1414,762.3085,586.0403,441.0053
428.0217,762.5269,586.4427,441.4076
429.0781,762.7442,586.8428,441.8094
430.1345,762.98,587.2783,442.2471
431.0149,763.1964,587.6766,442.6477
432.0713,763.4119,588.0726,443.0478
433.1277,763.6458,588.5048,443.4837
434.008,763.859,588.8988,443.8827
435.0644,764.0717,589.2921,444.2811
436.1208,764.3034,589.7201,444.7152
437.0012,764.5152,590.1103,445.1125
438.0576,764.7256,590.5005,445.5092
439.114,764.9542,590.9236,445.9414
440.1704,765.1827,591.3465,446.373
441.0508,765.3916,591.7323,446.768
442.1072,765.5995,592.117,447.1626
443.1636,765.8251,592.5363,447.5923
444.0439,766.0314,592.9184,447.9857
445.1003,766.2374,593.2997,448.3785
446.1567,766.4613,593.7147,448.8064
447.0371,766.6656,594.0934,449.1982
448.0935,766.8687,594.472,449.5893
449.1499,767.09,594.8826,450.0154
450.0302,767.2928,595.2584,450.4055
451.0866,767.4946,595.6332,450.795
452.1431,767.7137,596.04,451.2193
453.0234,767.9138,596.4131,451.6077
454.0798,768.1135,596.7842,451.9955
455.1362,768.3309,597.1878,452.418
456.0166,768.5293,597.5573,452.8048
457.073,768.7268,597.9248,453.1909
458.1294,768.9412,598.3255,453.6116
459.0097,769.1378,598.6914,453.9967
460.0661,769.334,599.0557,454.3812
461.1225,769.5469,599.4531,454.8
462.0029,769.7412,599.8153,455.1834
463.0593,769.9346,600.1768,455.5663
464.1157,770.1454,600.5706,455.9834
465.1721,770.3558,600.9622,456.3998
466.0524,770.5479,601.3207,456.781
467.1088,770.7391,601.6785,457.1616
468.1653,770.947,602.0671,457.5762
469.0456,771.1373,602.4228,457.9557
470.102,771.3269,602.7767,458.3347
471.1584,771.5332,603.1619,458.7475
472.0388,771.7212,603.5145,459.1254
473.0952,771.9088,603.8658,459.5027
474.1516,772.1128,604.2478,459.9137
475.0319,772.2996,604.5972,460.2899
476.0883,772.4856,604.945,460.6656
477.1447,772.6876,605.3245,461.0748
478.0251,772.8721,605.6708,461.4494
479.0815,773.0562,606.0155,461.8234
480.1379,773.2568,606.3919,462.2309
481.0182,773.44,606.735,462.6038
482.0746,773.6227,607.0771,462.9762
483.131,773.821,607.4502,463.3818
484.0114,774.0021,607.7902,463.7531
485.0678,774.1831,608.1297,464.1239
486.1242,774.38,608.4993,464.5278
487.0046,774.5596,608.8368,464.8974
488.061,774.7386,609.1736,465.2665
489.1174,774.933,609.5403,465.6686
490.1738,775.1273,609.9053,466.0701
491.0541,775.305,610.2393,466.4375
492.1105,775.4821,610.5723,466.8044
493.1669,775.6746,610.9341,467.2041
494.0473,775.85,611.2653,467.57
495.1037,776.0253,611.5959,467.9352
496.1601,776.2164,611.9549,468.3332
497.0404,776.3907,612.2832,468.6974
498.0968,776.5645,612.6109,469.061
499.1533,776.7534,612.967,469.4572
500.0336,776.926,613.2931,469.8198
501.09,777.0981,613.6179,470.1818
502.1464,777.2858,613.9711,470.5762
503.0268,777.4571,614.2944,470.9371
504.0832,777.6276,614.6166,471.2976
505.1396,777.8131,614.9668,471.6902
506.0199,777.9827,615.2872,472.0495
507.0763,778.1518,615.607,472.4084
508.1327,778.3359,615.9545,472.7992
509.0131,778.5042,616.2724,473.157
510.0695,778.672,616.5894,473.5142
511.1259,778.854,616.934,473.9033
512.0062,779.0207,617.2497,474.2594
513.0626,779.187,617.5643,474.615
514.119,779.3681,617.906,475.0024
515.1755,779.5484,618.2473,475.3891
516.0558,779.713,618.5593,475.7431
517.1122,779.877,618.8702,476.0965
518.1686,780.0558,619.2087,476.4815
519.049,780.2194,619.5184,476.8339
520.1054,780.3823,619.827,477.1858
521.1618,780.5596,620.1628,477.569
522.0421,780.7215,620.4701,477.9198
523.0985,780.8829,620.776,478.2701
524.1549,781.0584,621.109,478.6516
525.0353,781.2192,621.414,479.0008
526.0917,781.3794,621.7176,479.3495
527.1481,781.5536,622.0479,479.7292
528.0284,781.7127,622.3501,480.0769
529.0848,781.8713,622.6516,480.424
530.1413,782.0439,622.9794,480.802
531.0216,782.2019,623.2792,481.148
532.078,782.3595,623.5785,481.4936
533.1344,782.5308,623.9035,481.8699
534.0148,782.6872,624.2013,482.2144
535.0712,782.8433,624.4981,482.5583
536.1276,783.013,624.8211,482.9329
537.0079,783.1682,625.1162,483.2758
538.0643,783.3231,625.411,483.6182
539.1207,783.4918,625.7309,483.9911
540.0011,783.6457,626.0237,484.3324
541.0575,783.7989,626.316,484.6732
542.1139,783.9659,626.6344,485.0444
543.1703,784.1325,626.9508,485.415
544.0506,784.2852,627.2408,485.7542
545.107,784.4369,627.5304,486.0929
546.1635,784.6021,627.8447,486.4618
547.0438,784.753,628.1324,486.7994
548.1002,784.9033,628.4197,487.1366
549.1566,785.0673,628.7317,487.5038
550.037,785.2172,629.0171,487.8399
551.0934,785.3667,629.3022,488.1754
552.1498,785.5294,629.6123,488.5409
553.0301,785.6778,629.8951,488.8755
554.0865,785.8259,630.178,489.2095
555.1429,785.987,630.4857,489.5733
556.0233,786.1343,630.7669,489.9063
557.0797,786.2817,631.0473,490.2388
558.1361,786.4415,631.3529,490.601
559.0164,786.5877,631.632,490.9324
560.0728,786.7335,631.9104,491.2634
561.1292,786.892,632.2134,491.6238
562.0096,787.037,632.4905,491.9537
563.066,787.1817,632.7665,492.2831
564.1224,787.3393,633.0671,492.6419
565.0028,787.4834,633.3422,492.9703
566.0592,787.6265,633.6165,493.2982
567.1156,787.7829,633.9149,493.6553
568.172,787.9384,634.2129,494.0118
569.0523,788.0807,634.4852,494.3382
570.1087,788.2227,634.7564,494.664
571.1651,788.3772,635.0518,495.0188
572.0455,788.5187,635.3225,495.3436
573.1019,788.6594,635.5921,495.6679
574.1583,788.8128,635.8852,496.0211
575.0386,788.9529,636.1533,496.3444
576.095,789.0925,636.4211,496.6672
577.1515,789.245,636.7121,497.0188
578.0318,789.3838,636.9782,497.3405
579.0882,789.5228,637.2439,497.6618
580.1446,789.6735,637.5332,498.0117
581.025,789.8118,637.7975,498.332
582.0814,789.9491,638.0611,498.6517
583.1378,790.0989,638.3481,499.0
584.0181,790.236,638.6107,499.3187
585.0745,790.3727,638.8724,499.637
586.1309,790.5214,639.157,499.9836
587.0113,790.657,639.4178,500.3009
588.0677,790.7927,639.6777,500.6176
589.1241,790.9399,639.9604,500.9626
590.0044,791.075,640.2189,501.2784
591.0608,791.2094,640.4772,501.5936
592.1172,791.3561,640.7577,501.937
593.1737,791.502,641.0377,502.2798
594.054,791.6355,641.2941,502.5936
595.1104,791.7684,641.5496,502.9068
596.1668,791.9135,641.8275,503.248
597.0472,792.0457,642.0817,503.5603
598.1036,792.1782,642.3355,503.872
599.16,792.3219,642.6117,504.2116
600.0403,792.4536,642.8641,504.5224
601.0967,792.5846,643.1158,504.8327
602.1531,792.7273,643.3902,505.1706
603.0335,792.8579,643.6409,505.4799
604.0899,792.9878,643.8906,505.7888
605.1463,793.1298,644.1628,506.1251
606.0266,793.2591,644.4119,506.433
607.083,793.3888,644.6603,506.7403
608.1394,793.5292,644.9303,507.0751
609.0198,793.658,645.1774,507.3814
610.0762,793.786,645.4242,507.6873
611.1326,793.9257,645.6925,508.0205
612.013,794.0532,645.9378,508.3254
613.0694,794.1806,646.1826,508.6298
614.1258,794.3194,646.4492,508.9613
615.0061,794.4461,646.6929,509.2648
616.0625,794.5726,646.9358,509.5678
617.1189,794.71,647.2004,509.8977
618.1753,794.8472,647.4645,510.2272
619.0557,794.9726,647.7058,510.5286
620.1121,795.0979,647.9465,510.8296
621.1685,795.2341,648.2086,511.1575
622.0488,795.3589,648.4485,511.4575
623.1052,795.483,648.6876,511.7571
624.1617,795.6184,648.9477,512.0834
625.042,795.7419,649.1856,512.3819
626.0984,795.8653,649.4234,512.6801
627.1548,795.9995,649.6818,513.0047
628.0352,796.1224,649.918,513.3019
629.0916,796.2448,650.1538,513.5986
630.148,796.3784,650.4106,513.9217
631.0283,796.5001,650.6455,514.2174
632.0847,796.6219,650.8795,514.5127
633.1411,796.754,651.1343,514.8343
634.0215,796.8751,651.3675,515.1286
635.0779,796.9959,651.6002,515.4224
636.1343,797.1273,651.8532,515.7424
637.0146,797.2474,652.0847,516.0353
638.071,797.3675,652.3159,516.3277
639.1274,797.4979,652.5673,516.6461
640.0078,797.6175,652.797,516.9376
641.0642,797.7363,653.0264,517.2286
642.1206,797.8659,653.2763,517.5455
643.001,797.9843,653.5047,517.8355
644.0574,798.1026,653.7324,518.1251
645.1138,798.2312,653.9803,518.4405
646.1702,798.3598,654.2276,518.7553
647.0505,798.4771,654.4541,519.0435
648.1069,798.5943,654.6798,519.3311
649.1633,798.7216,654.9254,519.6444
650.0437,798.8381,655.1501,519.9312
651.1001,798.9544,655.3744,520.2174
652.1565,799.081,655.6186,520.5292
653.0368,799.1967,655.8416,520.8145
654.0932,799.3123,656.0642,521.0994
655.1497,799.438,656.3068,521.4097
656.03,799.553,656.5284,521.6936
657.0864,799.6677,656.7496,521.9771
658.1428,799.7923,656.9902,522.2858
659.0232,799.9066,657.2104,522.5684
660.0796,800.0205,657.4304,522.8505
661.136,800.1444,657.6694,523.1577
662.0163,800.2579,657.8879,523.4388
663.0727,800.3711,658.1061,523.7196
664.1291,800.4941,658.3438,524.0253
665.0095,800.6068,658.561,524.3051
666.0659,800.7191,658.7776,524.5844
667.1223,800.8412,659.0136,524.8886
668.0026,800.9531,659.2294,525.167
669.059,801.0647,659.4448,525.445
670.1154,801.186,659.6791,525.7477
671.1719,801.3074,659.9128,526.0499
672.0522,801.4182,660.1266,526.3264
673.1086,801.5287,660.3401,526.6025
674.165,801.6492,660.5724,526.9032
675.0454,801.7589,660.7847,527.1784
676.1018,801.8687,660.9966,527.4532
677.1582,801.9884,661.2272,527.7524
678.0385,802.0977,661.4384,528.0263
679.0949,802.2066,661.649,528.2996
680.1513,802.3255,661.8779,528.5974
681.0317,802.4341,662.0876,528.8698
682.0881,802.5423,662.2969,529.1419
683.1445,802.6604,662.5244,529.4381
684.0248,802.7681,662.7326,529.7093
685.0812,802.8756,662.9403,529.9799
686.1376,802.9929,663.1663,530.2747
687.018,803.0999,663.3735,530.5445
688.0744,803.2067,663.5798,530.8138
689.1308,803.3234,663.8041,531.1072
690.0112,803.4296,664.0098,531.3756
691.0676,803.5358,664.2147,531.6436
692.124,803.6515,664.4381,531.9355
693.0043,803.7569,664.6423,532.2026
694.0607,803.8624,664.8457,532.4693
695.1171,803.9774,665.0674,532.7597
696.1735,804.0918,665.2887,533.0496
697.0539,804.1964,665.4909,533.3149
698.1103,804.3013,665.693,533.5798
699.1667,804.415,665.9125,533.8681
700.047,804.5189,666.1134,534.1319
701.1034,804.623,666.3141,534.3953
702.1599,804.7359,666.5323,534.6819
703.0402,804.839,666.732,534.9441
704.0966,804.9424,666.9311,535.2058
705.153,805.0548,667.1479,535.4909
706.0334,805.1571,667.3466,535.7512
707.0898,805.2597,667.5444,536.0113
708.1462,805.3718,667.7599,536.2945
709.0265,805.4733,667.9569,536.5536
710.0829,805.5752,668.1534,536.8119
711.1393,805.6863,668.3678,537.0933
712.0197,805.7873,668.5633,537.3507
713.0761,805.8883,668.7588,537.6075
714.1325,805.9988,668.9714,537.8871
715.0128,806.0993,669.1657,538.143
716.0692,806.1995,669.3601,538.3983
717.1256,806.3094,669.5713,538.6762
718.006,806.4094,669.7644,538.9304
719.0624,806.5089,669.9574,539.184
720.1188,806.6178,670.1671,539.4603
721.1752,806.7262,670.3768,539.7359
722.0556,806.825,670.5682,539.9879
723.112,806.9241,670.7594,540.2394
724.1684,807.0323,670.9676,540.5135
725.0487,807.1304,671.1575,540.7638
726.1051,807.2286,671.3478,541.0139
727.1615,807.3362,671.5544,541.2862
728.0419,807.4338,671.7437,541.5353
729.0983,807.5312,671.9322,541.7836
730.1547,807.638,672.1375,542.054
731.035,807.7353,672.3257,542.3014
732.0914,807.8319,672.5129,542.5486
733.1478,807.9376,672.7173,542.8172
734.0282,808.0348,672.9034,543.0631
735.0846,808.1308,673.0901,543.3085
736.141,808.2356,673.2929,543.5758
737.0214,808.332,673.4783,543.82
738.0778,808.4278,673.6634,544.064
739.1342,808.5321,673.8645,544.3294
740.0145,808.6276,674.0494,544.5725
741.0709,808.7224,674.2327,544.8147
742.1273,808.8262,674.4334,545.0786
743.0077,808.9212,674.6162,545.32
744.0641,809.0156,674.799,545.5609
745.1205,809.1184,674.9979,545.8229
746.0008,809.213,675.1797,546.0629
747.0572,809.307,675.3616,546.3022
748.1136,809.4088,675.559,546.5628
749.1701,809.5114,675.7563,546.8228
750.0504,809.6052,675.9365,547.0607
751.1068,809.6974,676.1165,547.2982
752.1632,809.7992,676.3124,547.5567
753.0436,809.8926,676.4918,547.7929
754.1,809.9844,676.6705,548.0288
755.1564,810.0852,676.8653,548.2856
756.0367,810.1781,677.0429,548.5207
757.0931,810.2698,677.2212,548.7548
758.1495,810.3695,677.4142,549.0101
759.0299,810.4619,677.5917,549.2436
760.0863,810.5533,677.7676,549.4767
761.1427,810.6523,677.96,549.7302
762.023,810.7436,678.1359,549.9623
763.0794,810.8346,678.3112,550.1938
764.1358,810.9333,678.5026,550.4459
765.0162,811.0236,678.6767,550.6764
766.0726,811.1142,678.8515,550.9066
767.129,811.2126,679.0408,551.157
768.0094,811.3022,679.215,551.3862
769.0658,811.392,679.3878,551.6149
770.1222,811.49,679.5768,551.8638
771.0025,811.5793,679.7488,552.0914
772.0589,811.6682,679.9212,552.3187
773.1153,811.7654,680.1085,552.5662
774.1717,811.8624,680.2954,552.8129
775.0521,811.9508,680.4668,553.0388
776.1085,812.0392,680.6371,553.2641
777.1649,812.1357,680.8231,553.5097
778.0452,812.2238,680.9926,553.7338
779.1016,812.3114,681.1626,553.9578
780.1581,812.4073,681.3469,554.2015
781.0384,812.495,681.5162,554.4247
782.0948,812.5822,681.6842,554.6471
783.1512,812.6772,681.868,554.8894
784.0316,812.7644,682.0355,555.1111
785.088,812.8513,682.2033,555.3322
786.1444,812.9456,682.3853,555.5731
787.0247,813.0321,682.5525,555.7932
788.0811,813.1186,682.7185,556.013
789.1375,813.2125,682.8998,556.2522
790.0179,813.2984,683.0653,556.4713
791.0743,813.3843,683.2309,556.6896
792.1307,813.4778,683.4108,556.9274
793.011,813.5631,683.5756,557.1448
794.0674,813.6483,683.7397,557.362
795.1238,813.7412,683.9186,557.5982
796.0042,813.8262,684.0822,557.8144
797.0606,813.9108,684.2456,558.0301
798.117,814.0032,684.4234,558.265
799.1734,814.0953,684.6007,558.4994
800.0538,814.1795,684.7628,558.7135
801.1102,814.2635,684.9248,558.9276
802.1666,814.3551,685.1011,559.1604
803.0469,814.4389,685.2623,559.3735
804.1033,814.5225,685.4233,559.5861
805.1597,814.6134,685.5984,559.8174
806.0401,814.6966,685.7585,560.0291
807.0965,814.7798,685.9184,560.2403
808.1529,814.8701,686.0925,560.4705
809.0332,814.9528,686.2517,560.6807
810.0896,815.0354,686.4107,560.8907
811.146,815.1254,686.5836,561.1192
812.0264,815.2076,686.7416,561.3282
813.0828,815.2897,686.8996,561.537
814.1392,815.3791,687.0715,561.7639
815.0196,815.4608,687.2288,561.9718
816.076,815.5424,687.3857,562.1791
817.1324,815.6312,687.5566,562.4048
818.0127,815.7124,687.7126,562.6113
819.0691,815.7936,687.8687,562.8173
820.1255,815.8819,688.0383,563.0416
821.0059,815.9626,688.1937,563.2468
822.0623,816.0432,688.3485,563.4517
823.1187,816.131,688.5175,563.6744
824.1751,816.2186,688.6856,563.8969
825.0554,816.2987,688.8396,564.1003
826.1118,816.3787,688.9931,564.3033
827.1683,816.4658,689.1605,564.5245
828.0486,816.5455,689.3133,564.7265
829.105,816.625,689.4663,564.9283
830.1614,816.7114,689.6323,565.148
831.0418,816.7907,689.7845,565.3489
832.0982,816.8697,689.9362,565.5496
833.1546,816.9556,690.1014,565.7677
834.0349,817.0344,690.2524,565.9674
835.0913,817.113,690.4034,566.1666
836.1477,817.1985,690.5676,566.3836
837.0281,817.2767,690.7176,566.5821
838.0845,817.3547,690.8676,566.78
839.1409,817.4398,691.0306,566.9956
840.0212,817.5177,691.18,567.1928
841.0776,817.5952,691.3288,567.3896
842.134,817.6797,691.4912,567.6039
843.0144,817.757,691.6394,567.7997
844.0708,817.8343,691.7874,567.9953
845.1272,817.9182,691.9484,568.2082
846.0076,817.995,692.0958,568.4029
847.064,818.0718,692.2429,568.5973
848.1204,818.1553,692.4031,568.8088
849.0007,818.2317,692.5497,569.0024
850.0571,818.308,692.6956,569.1954
851.1135,818.391,692.8549,569.4058
852.1699,818.4739,693.0136,569.6156
853.0503,818.5497,693.1589,569.8073
854.1067,818.6252,693.3038,569.9989
855.1631,818.7076,693.4619,570.2074
856.0434,818.783,693.6061,570.3981
857.0998,818.8582,693.75,570.5884
858.1562,818.9401,693.9069,570.7955
859.0366,819.015,694.0503,570.985
860.093,819.0897,694.1936,571.1742
861.1494,819.1711,694.3494,571.3801
862.0298,819.2456,694.4921,571.5686
863.0862,819.3198,694.6342,571.7562
864.1426,819.4008,694.7891,571.9609
865.0229,819.4749,694.9308,572.1481
866.0793,819.5488,695.0723,572.3349
867.1357,819.6292,695.2262,572.5383
868.0161,819.7026,695.367,572.724
869.0725,819.7761,695.5077,572.9097
870.1289,819.8561,695.6605,573.1118
871.0092,819.9292,695.8005,573.2966
872.0656,820.0023,695.9401,573.4811
873.122,820.0818,696.0921,573.6818
874.0024,820.1545,696.2312,573.8654
875.0588,820.2271,696.37,574.0487
876.1152,820.306,696.5214,574.2482
877.1716,820.385,696.6718,574.4474
878.052,820.4572,696.8099,574.6295
879.1084,820.5292,696.9475,574.8112
880.1648,820.6076,697.0974,575.009
881.0451,820.6792,697.2344,575.19
882.1015,820.7508,697.3712,575.3706
883.1579,820.8288,697.5203,575.5674
884.0383,820.9,697.6563,575.747
885.0947,820.9713,697.7923,575.9266
886.1511,821.0487,697.9403,576.1219
887.0314,821.1196,698.0757,576.3006
888.0878,821.1904,698.2108,576.4791
889.1442,821.2674,698.3579,576.6732
890.0246,821.3378,698.4926,576.8507
891.081,821.4083,698.6268,577.028
892.1374,821.4848,698.773,577.2209
893.0178,821.5549,698.9067,577.3974
894.0742,821.6247,699.0401,577.5736
895.1306,821.7008,699.1854,577.7652
896.0109,821.7705,699.3182,577.9407
897.0673,821.8401,699.4512,578.1157
898.1237,821.9156,699.5955,578.3062
899.0041,821.985,699.7273,578.4808
900.0605,822.054,699.8593,578.6545
901.1169,822.1292,700.0028,578.8438
902.1733,822.2044,700.1459,579.0328
903.0536,822.273,700.2768,579.2055
904.11,822.3415,700.4077,579.3781
905.1664,822.4164,700.55,579.5659
906.0468,822.4846,700.6798,579.7375
907.1032,822.5527,700.8099,579.9089
908.1596,822.627,700.9513,580.0955
909.04,822.6947,701.0807,580.266
910.0964,822.7624,701.2098,580.4366
911.1528,822.8364,701.3503,580.6219
912.0331,822.9037,701.479,580.7914
913.0895,822.9712,701.6072,580.9607
914.1459,823.0446,701.7468,581.1449
915.0263,823.1116,701.8746,581.3134
916.0827,823.1786,702.0021,581.4818
917.1391,823.2514,702.1409,581.6647
918.0194,823.3182,702.2679,581.8322
919.0758,823.3847,702.3947,581.9994
920.1322,823.4572,702.5327,582.1812
921.0126,823.5237,702.6588,582.3477
922.069,823.5897,702.7848,582.514
923.1254,823.6617,702.9218,582.6946
924.0058,823.7279,703.0473,582.86
925.0622,823.7934,703.1725,583.0251
926.1186,823.8652,703.3086,583.2047
927.175,823.9368,703.4449,583.384
928.0553,824.002,703.5692,583.5482
929.1117,824.0674,703.6931,583.7116
930.1681,824.1385,703.8285,583.8898
931.0485,824.2034,703.9519,584.0528
932.1049,824.2684,704.0754,584.2153
933.1613,824.339,704.2098,584.3925
934.0416,824.4036,704.3324,584.5545
935.098,824.4683,704.4553,584.7159
936.1544,824.5386,704.5888,584.8919
937.0348,824.6027,704.7106,585.0529
938.0912,824.6668,704.8328,585.2134
939.1476,824.7367,704.9653,585.3882
940.028,824.8005,705.0866,585.5483
941.0844,824.8644,705.2078,585.7077
942.1408,824.9338,705.3395,585.8815
943.0211,824.9973,705.4606,586.0404
944.0775,825.0607,705.5807,586.1989
945.1339,825.1298,705.7116,586.3716
946.0143,825.1928,705.8317,586.5297
947.0707,825.2559,705.9512,586.6871
948.1271,825.3246,706.0815,586.8587
949.0074,825.3872,706.2005,587.0156
950.0638,825.45,706.3194,587.1722
951.1202,825.5183,706.4491,587.3426
952.0006,825.5806,706.5674,587.4989
953.057,825.6429,706.6854,587.6542
954.1134,825.7108,706.8141,587.8237
955.1698,825.7784,706.9426,587.9927
956.0502,825.8403,707.0599,588.1474
957.1066,825.9022,707.1771,588.3016
958.163,825.9694,707.3046,588.4698
959.0433,826.031,707.4215,588.6232
960.0997,826.0925,707.5382,588.7765
961.1561,826.1593,707.6646,588.9436
962.0365,826.2205,707.7807,589.0963
963.0929,826.2816,707.8965,589.2485
964.1493,826.3481,708.0224,589.4146
965.0296,826.409,708.1379,589.5663
966.086,826.4698,708.2526,589.7175
967.1424,826.5359,708.3781,589.8825
968.0228,826.5964,708.4928,590.0333
969.0792,826.6567,708.607,590.1837
970.1356,826.7224,708.7315,590.3475
971.016,826.7825,708.8452,590.4976
972.0724,826.8426,708.959,590.6468
973.1288,826.908,709.0828,590.8096
974.0091,826.9678,709.1957,590.9586
975.0655,827.0274,709.3089,591.1071
976.1219,827.0924,709.4318,591.2688
977.0023,827.1518,709.5445,591.4169
978.0587,827.2111,709.6564,591.5646
979.1151,827.2758,709.7786,591.7252
980.1715,827.3402,709.9008,591.8856
981.0518,827.3992,710.0121,592.0323
982.1082,827.4581,710.1236,592.1787
983.1646,827.5222,710.2446,592.338
984.045,827.5808,710.3555,592.4841
985.1014,827.6392,710.4664,592.6292
986.1578,827.703,710.5867,592.7876
987.0382,827.7612,710.6969,592.9326
988.0946,827.8194,710.8067,593.0772
989.151,827.8828,710.9266,593.2345
990.0313,827.9407,711.036,593.3785
991.0877,827.9986,711.1454,593.5224
992.1441,828.0615,711.2643,593.6785
993.0245,828.1192,711.373,593.8215
994.0809,828.1766,711.482,593.9644
995.1373,828.2392,711.6001,594.1198
996.0176,828.2966,711.7082,594.2618
997.074,828.3536,711.8161,594.4038
998.1304,828.4159,711.9337,594.5583
999.0108,828.4729,712.0412,594.6994
1000.07,828.5297,712.1485,594.8404
1001.12,828.5916,712.2652,594.9939
1002,828.6481,712.3721,595.1342
1003.06,828.7047,712.479,595.2742
1004.12,828.7661,712.5948,595.4269
1005.17,828.8275,712.7107,595.579
1006.05,828.8838,712.8166,595.7181
1007.11,828.9397,712.9225,595.857
1008.17,829.0008,713.0376,596.0082
1009.05,829.0566,713.1429,596.1465
1010.1,829.1123,713.2479,596.2845
1011.16,829.173,713.3623,596.4348
1012.04,829.2284,713.4673,596.5724
1013.1,829.2839,713.5716,596.7093
1014.15,829.3442,713.6852,596.8586
1015.033,829.3993,713.7891,596.9953
1016.09,829.4546,713.8932,597.1315
1017.15,829.5145,714.0061,597.2798
1018.03,829.5693,714.1096,597.4157
1019.08,829.624,714.2126,597.5511
1020.139,829.6837,714.325,597.6984
1021.02,829.7381,714.4278,597.8333
1022.08,829.7927,714.5305,597.9679
1023.13,829.8519,714.6419,598.1144
1024.01,829.9062,714.744,598.2483
1025.07,829.9603,714.846,598.3821
1026.13,830.0191,714.957,598.5279
1027.01,830.0731,715.0585,598.6608
1028.062,830.1268,715.1597,598.7937
1029.12,830.1854,715.27,598.9385
1030.17,830.2439,715.3801,599.0828
1031.06,830.2973,715.4809,599.2147
1032.11,830.3508,715.5813,599.3465
1033.168,830.4089,715.6906,599.4903
1034.05,830.4621,715.7905,599.6212
1035.1,830.5152,715.8905,599.752
1036.16,830.5729,715.9992,599.8947
1037.04,830.6257,716.0986,600.0251
1038.1,830.6785,716.1977,600.1551
1039.15,830.7359,716.3058,600.2967
1040.03,830.7885,716.4046,600.4264
1041.09,830.8409,716.5034,600.5558
1042.15,830.898,716.6106,600.6963
1043.03,830.9503,716.7088,600.825
1044.08,831.0024,716.8068,600.9536
1045.14,831.0592,716.9136,601.0935
1046.021,831.1111,717.0112,601.2212
1047.08,831.1629,717.1086,601.349
1048.13,831.2194,717.2145,601.4883
1049.01,831.271,717.3117,601.6152
1050.07,831.3225,717.4085,601.7419
1051.127,831.3786,717.514,601.88
1052.01,831.4299,717.6102,602.0065
1053.06,831.4813,717.7065,602.1325
1054.12,831.537,717.8112,602.2696
1055,831.5879,717.9071,602.3952
1056.06,831.6389,718.0028,602.5207
1057.11,831.6943,718.1069,602.6568
1058.17,831.7497,718.2106,602.7928
1059.05,831.8003,718.3058,602.9174
1060.11,831.8508,718.4006,603.0416
1061.16,831.9059,718.504,603.1767
1062.04,831.9562,718.5983,603.3004
1063.1,832.0064,718.6925,603.424
1064.156,832.0611,718.795,603.5583
1065.04,832.1112,718.8891,603.681
1066.09,832.161,718.9827,603.8036
1067.15,832.2154,719.0847,603.9373
1068.03,832.2651,719.178,604.0594
1069.09,832.3148,719.271,604.1812
1070.14,832.3689,719.3724,604.3138
1071.02,832.4183,719.4655,604.4354
1072.08,832.4678,719.5578,604.5565
1073.14,832.5215,719.6584,604.6881
1074.02,832.5706,719.7506,604.8086
1075.07,832.6196,719.8425,604.9291
1076.13,832.6731,719.9427,605.0601
1077.009,832.7219,720.0343,605.1798
1078.07,832.7707,720.1256,605.2994
1079.12,832.8238,720.2251,605.4297
1080,832.8724,720.3161,605.5488
1081.06,832.9209,720.407,605.6674
1082.115,832.9737,720.5061,605.7967
1083.17,833.0264,720.6046,605.926
1084.05,833.0746,720.6949,606.044
1085.11,833.1226,720.7849,606.1618
1086.16,833.175,720.883,606.2899
1087.04,833.2229,720.9728,606.4073
1088.1,833.2707,721.0623,606.5246
1089.16,833.3228,721.1597,606.6518
1090.038,833.3705,721.2489,606.7683
1091.09,833.418,721.3378,606.8847
1092.15,833.4699,721.4348,607.0114
1093.03,833.5173,721.5236,607.1272
1094.09,833.5644,721.6118,607.2426
1095.144,833.6159,721.708,607.3685
1096.02,833.6629,721.7961,607.4839
1097.08,833.7099,721.884,607.5985
1098.14,833.761,721.9798,607.7235
1099.02,833.8078,722.0674,607.8378
1100.07,833.8546,722.1545,607.9521
1101.13,833.9054,722.2496,608.0764
1102.01,833.952,722.3367,608.1899
1103.07,833.9984,722.4235,608.3033
1104.12,834.049,722.5183,608.427
1105,834.0952,722.6043,608.5399
1106.06,834.1414,722.6907,608.6524
1107.12,834.1916,722.7847,608.775
1108.17,834.2417,722.8783,608.8976
1109.05,834.2876,722.9642,609.0096
1110.11,834.3334,723.0498,609.1212
1111.17,834.3833,723.1428,609.2428
1112.05,834.4289,723.228,609.3541
1113.103,834.4746,723.313,609.4654
1114.16,834.5241,723.4056,609.5862
1115.04,834.5694,723.4906,609.6966
1116.1,834.6147,723.5749,609.8068
1117.15,834.6639,723.6669,609.9271
1118.03,834.709,723.751,610.0369
1119.09,834.7539,723.8349,610.1465
1120.15,834.8029,723.9266,610.2658
1121.026,834.8478,724.0102,610.375
1122.08,834.8925,724.0936,610.4842
1123.14,834.9412,724.1844,610.6026
1124.02,834.9858,724.2675,610.711
1125.08,835.0303,724.3506,610.8192
1126.132,835.0787,724.4409,610.9372
1127.01,835.1229,724.5237,611.0449
1128.07,835.1671,724.6059,611.1524
1129.13,835.2152,724.6956,611.2695
1130.01,835.2592,724.7778,611.3767
1131.06,835.3032,724.8597,611.4838
1132.12,835.351,724.9491,611.6
1133.17,835.3988,725.0381,611.7159
1134.06,835.4425,725.1195,611.8221
1135.11,835.4862,725.2006,611.9282
1136.17,835.5336,725.289,612.0436
1137.05,835.5769,725.3701,612.149
1138.1,835.6203,725.4511,612.2543
1139.16,835.6674,725.539,612.369
1140.04,835.7105,725.6192,612.474
1141.1,835.7536,725.6994,612.5785
1142.15,835.8005,725.7868,612.6923
1143.03,835.8434,725.8667,612.7965
1144.091,835.8863,725.9466,612.9005
1145.15,835.933,726.0335,613.0137
1146.03,835.9756,726.1129,613.1173
1147.08,836.0182,726.192,613.2205
1148.14,836.0646,726.2783,613.3329
1149.02,836.1068,726.3574,613.4359
1150.08,836.1492,726.4362,613.5387
1151.13,836.1952,726.5221,613.6503
1152.014,836.2374,726.6004,613.7523
1153.07,836.2794,726.6787,613.8545
1154.13,836.3252,726.7639,613.9657
1155.01,836.3671,726.8418,614.0672
1156.06,836.409,726.9199,614.1684
1157.12,836.4546,727.0046,614.2788
1158,836.4963,727.0821,614.3798
1159.06,836.5379,727.1593,614.4807
1160.11,836.583,727.2434,614.5902
1161.17,836.6282,727.3275,614.6995
1162.05,836.6694,727.4044,614.7996
1163.11,836.7107,727.4813,614.8995
1164.16,836.7556,727.5647,615.0083
1165.04,836.7967,727.641,615.1077
1166.1,836.8377,727.7171,615.2068
1167.16,836.8823,727.8001,615.3148
1168.04,836.9232,727.8761,615.4137
1169.09,836.964,727.952,615.5126
1170.149,837.0084,728.0344,615.6196
1171.03,837.049,728.1098,615.7177
1172.09,837.0894,728.185,615.8157
1173.14,837.1335,728.2669,615.9226
1174.02,837.1737,728.3419,616.02
1175.079,837.214,728.4169,616.1174
1176.14,837.2579,728.4985,616.2233
1177.02,837.298,728.5727,616.3202
1178.07,837.3381,728.6471,616.417
1179.13,837.3817,728.728,616.5226
1180.01,837.4216,728.802,616.6186
1181.07,837.4614,728.876,616.7147
1182.12,837.5048,728.9566,616.8194
1183.002,837.5444,729.0302,616.9153
1184.06,837.5839,729.1035,617.0107
1185.11,837.6269,729.1835,617.1146
1186.17,837.6698,729.2631,617.2184
1187.05,837.7091,729.3362,617.3132
1188.108,837.7484,729.4091,617.408
1189.16,837.7911,729.4886,617.5113
1190.04,837.8302,729.561,617.6052
1191.1,837.8693,729.6333,617.6993
1192.16,837.9117,729.712,617.8019
1193.04,837.9507,729.784,617.8956
1194.09,837.9894,729.8561,617.9892
1195.15,838.0316,729.9346,618.091
1196.03,838.0702,730.0061,618.1839
1197.09,838.1087,730.0776,618.2768
1198.14,838.1506,730.1553,618.378
1199.02,838.189,730.2264,618.4707
1200.0,838.2256,730.2943,618.5587