File: PMMA/Validation_Results/BUW-FZJ/BUW-FZJ_ApproachB_Gasification_q50_MLR_R5.csv
Time,MLR
[s],[g/m2/s]
0.0,0.0
1.056409,1.54691e-13
2.112818,8.63345e-11
3.16923,4.37281e-09
4.04957,5.54694e-08
5.10598,4.66599e-07
6.16239,2.92211e-06
7.04273,1.17354e-05
8.09914,4.07359e-05
9.15554,0.00013038
10.0359,0.00033116
11.0923,0.0007800518
12.1487,0.00179197
13.029,0.00355836
14.0855,0.00674622
15.1419,0.012725
16.0222,0.0216753
17.0786,0.035771
18.135,0.059189
19.0154,0.0907295
20.0718,0.135818
21.12818,0.20431
22.0085,0.28931
23.06493,0.401682
24.1213,0.559926
25.00168,0.742514
26.0581,0.966998
27.1145,1.26089
28.1709,1.60799
29.0512,1.97123
30.1077,2.376074
31.1641,2.85695
32.0444,3.32668
33.1008,3.81693
34.1572,4.36474
35.0376,4.87089
36.094,5.37375
37.1504,5.91221
38.0307,6.39208
39.0871,6.85494
40.1435,7.33902
41.0239,7.7625
42.0803,8.16538
43.1367,8.58253
44.017,8.94496
45.0735,9.28825
46.12986,9.64288
47.0102,9.95075
48.06661,10.2425
49.123,10.5442
50.00336,10.8066
51.0598,11.0558
52.1162,11.3142
53.1726,11.5593
54.0529,11.7733
55.1093,11.9773
56.1657,12.1897
57.0461,12.3756
58.1025,12.5533
59.1589,12.7388
60.0392,12.9016
61.0957,13.0576
62.1521,13.2208
63.0324,13.3643
64.0888,13.5021
65.1452,13.6466
66.0256,13.774
67.082,13.8965
68.1384,14.0252
69.0187,14.1388
70.0751,14.2482
71.13154,14.3634
72.0119,14.4652
73.06829,14.5635
74.1247,14.6671
75.005,14.7588
76.0614,14.8474
77.1179,14.9409
78.1743,15.0312
79.0546,15.1113
80.111,15.1889
81.1674,15.2709
82.0478,15.3438
83.1042,15.4144
84.1606,15.4892
85.0409,15.5558
86.0973,15.6205
87.1537,15.689
88.0341,15.7501
89.0905,15.8096
90.1469,15.8727
91.0272,15.9291
92.0837,15.9841
93.1401,16.0425
94.0204,16.0948
95.0768,16.1459
96.13322,16.2004
97.0136,16.2492
98.06997,16.2971
99.1264,16.3481
100.007,16.3941
101.063,16.4391
102.12,16.4874
103.176,16.5348
104.056,16.5775
105.1127,16.6196
106.169,16.6648
107.049,16.7057
108.106,16.7461
109.162,16.7897
110.043,16.8292
111.099,16.8683
112.155,16.91054
113.036,16.949
114.092,16.9871
115.149,17.0285
116.029,17.0662
117.085,17.1037
118.142,17.1444
119.022,17.1817
120.078,17.2188
121.1349,17.2592
122.015,17.2962
123.072,17.3332
124.128,17.3735
125.0084,17.41045
126.065,17.4474
127.121,17.4878
128.002,17.52477
129.058,17.5663
130.114,17.6129
131.171,17.6505
132.051,17.68998
133.108,17.7262
134.164,17.7667
135.044,17.8068
136.101,17.8435
137.1571,17.88485
138.037,17.9252
139.094,17.9618
140.15,18.0057
141.0306,18.0429
142.087,18.0818
143.143,18.1248
144.024,18.1632
145.08,18.2013
146.137,18.2436
147.017,18.2824
148.073,18.3215
149.13,18.3631
150.01,18.4023
151.066,18.4408
152.1229,18.484
153.003,18.5225
154.06,18.5618
155.116,18.6048
156.172,18.647
157.053,18.68755
158.109,18.7263
159.166,18.7708
160.046,18.8105
161.102,18.85
162.159,18.8936
163.039,18.934
164.096,18.9733
165.152,19.0172
166.032,19.0579
167.089,19.0981
168.1451,19.1434
169.025,19.184
170.082,19.2255
171.138,19.2712
172.0186,19.3121
173.075,19.3547
174.131,19.4
175.012,19.4423
176.068,19.4848
177.125,19.5318
178.005,19.57485
179.061,19.6191
180.118,19.6664
181.174,19.7144
182.054,19.7589
183.1109,19.8039
184.1673,19.8523
185.048,19.8975
186.104,19.9423
187.16,19.9917
188.0408,20.0373
189.097,20.0834
190.154,20.1338
191.034,20.1797
192.09,20.2271
193.147,20.2769
194.027,20.3246
195.084,20.3719
196.14,20.4251
197.02,20.4741
198.077,20.522
199.1331,20.5771
200.013,20.6265
201.07,20.6766
202.126,20.7334
203.0066,20.7843
204.063,20.83556
205.119,20.8916
206.176,20.9489
207.056,21.0016
208.113,21.0545
209.169,21.1119
210.049,21.166
211.106,21.2195
212.162,21.2779
213.042,21.3329
214.099,21.3872
215.1553,21.4486
216.036,21.505
217.092,21.5611
218.148,21.625
219.0288,21.6826
220.085,21.7414
221.142,21.8069
222.022,21.8678
223.078,21.9279
224.135,21.9948
225.015,22.0567
226.072,22.1179
227.128,22.1863
228.008,22.2486
229.065,22.3127
230.1211,22.3828
231.001,22.447
232.058,22.5116
233.114,22.5825
234.171,22.6552
235.051,22.72166
236.107,22.7902
237.164,22.8663
238.044,22.93561
239.101,23.0063
240.157,23.086
241.037,23.1583
242.094,23.2323
243.15,23.3129
244.03,23.3869
245.087,23.4635
246.1433,23.5451
247.024,23.6224
248.08,23.7
249.136,23.7865
250.0168,23.8656
251.073,23.9451
252.13,24.034
253.01,24.1143
254.066,24.1973
255.123,24.2879
256.003,24.3738
257.06,24.4607
258.116,24.55848
259.172,24.6556
260.053,24.7477
261.109,24.8385
262.1655,24.93853
263.046,25.0326
264.102,25.1271
265.159,25.2292
266.039,25.3278
267.095,25.4254
268.152,25.5323
269.032,25.6342
270.089,25.7344
271.145,25.8458
272.025,25.9487
273.082,26.0558
274.138,26.1709
275.018,26.2769
276.075,26.3884
277.1313,26.5078
278.012,26.6211
279.068,26.7315
280.124,26.8569
281.0048,26.9711
282.061,27.0871
283.118,27.214
284.174,27.3427
285.054,27.4602
286.111,27.5814
287.167,27.7115
288.048,27.8329
289.104,27.9536
290.16,28.0888
291.041,28.21
292.097,28.3348
293.1535,28.4695
294.034,28.5927
295.09,28.7169
296.147,28.8513
297.027,28.9764
298.083,29.0979
299.14,29.2331
300.02,29.3547
301.077,29.4761
302.133,29.6075
303.013,29.7275
304.07,29.8454
305.126,29.9727
306.006,30.0886
307.063,30.202
308.1193,30.324
309.1757,30.4449
310.056,30.55208
311.112,30.6591
312.169,30.7731
313.0492,30.8736
314.106,30.9729
315.162,31.0807
316.042,31.175
317.099,31.2684
318.155,31.3663
319.036,31.4555
320.092,31.5396
321.148,31.631
322.029,31.7116
323.085,31.7905
324.1415,31.8728
325.022,31.9475
326.078,32.0192
327.135,32.0949
328.015,32.163
329.071,32.2289
330.128,32.2971
331.008,32.3587
332.065,32.4186
333.121,32.4827
334.001,32.5371
335.058,32.5904
336.114,32.6464
337.171,32.7002
338.051,32.7467
339.107,32.79
340.1637,32.8344
341.044,32.8747
342.1,32.9076
343.157,32.9439
344.0372,32.9717
345.094,32.9969
346.15,33.0184
347.03,33.0307
348.087,33.0399
349.143,33.0408
350.024,33.0354
351.08,33.0137
352.136,32.9875
353.017,32.9425
354.073,32.88374
355.1295,32.804
356.01,32.7037
357.066,32.5655
358.123,32.389
359.003,32.1694
360.0594,31.8909
361.116,31.509
362.172,30.9789
363.053,30.3213
364.109,29.4161
365.165,28.0594
366.046,26.1727
367.102,23.1298
368.159,17.4123
369.039,7.81279
370.095,0.4465316
371.1517,0.0
372.032,0.0
373.088,0.0
374.145,0.0
375.0252,0.0
376.082,0.0
377.138,0.0
378.018,0.0
379.075,0.0
380.131,0.0
381.012,0.0
382.068,0.0
383.124,0.0
384.005,0.0
385.061,0.0
386.117,0.0
387.1739,0.0
388.054,0.0
389.111,0.0
390.167,0.0
391.0474,0.0
392.104,0.0
393.16,0.0
394.041,0.0
395.097,0.0
396.153,0.0
397.034,0.0
398.09,0.0
399.147,0.0
400.027,0.0
401.083,0.0
402.1397,0.0
403.02,0.0
404.076,0.0
405.133,0.0
406.0132,0.0
407.07,0.0
408.126,0.0
409.006,0.0
410.063,0.0
411.119,0.0
412.176,0.0
413.056,0.0
414.112,0.0
415.169,0.0
416.049,0.0
417.105,0.0
418.1619,0.0
419.042,0.0
420.099,0.0
421.155,0.0
422.0354,0.0
423.092,0.0
424.148,0.0
425.029,0.0
426.085,0.0
427.141,0.0
428.022,0.0
429.078,0.0
430.135,0.0
431.015,0.0
432.071,0.0
433.128,0.0
434.008,0.0
435.064,0.0
436.121,0.0
437.001,0.0
438.0576,0.0
439.114,0.0
440.17,0.0
441.051,0.0
442.107,0.0
443.164,0.0
444.044,0.0
445.1,0.0
446.157,0.0
447.037,0.0
448.093,0.0
449.1499,0.0
450.03,0.0
451.087,0.0
452.143,0.0
453.0234,0.0
454.08,0.0
455.136,0.0
456.017,0.0
457.073,0.0
458.129,0.0
459.01,0.0
460.066,0.0
461.123,0.0
462.003,0.0
463.059,0.0
464.116,0.0
465.1721,0.0
466.052,0.0
467.109,0.0
468.165,0.0
469.0456,0.0
470.102,0.0
471.158,0.0
472.039,0.0
473.095,0.0
474.152,0.0
475.032,0.0
476.088,0.0
477.145,0.0
478.025,0.0
479.081,0.0
480.1379,0.0
481.018,0.0
482.075,0.0
483.131,0.0
484.0114,0.0
485.0678,0.0
486.124,0.0
487.005,0.0
488.061,0.0
489.117,0.0
490.174,0.0
491.054,0.0
492.111,0.0
493.167,0.0
494.047,0.0
495.104,0.0
496.1601,0.0
497.04,0.0
498.097,0.0
499.153,0.0
500.0,0.0