File: PMMA/Validation_Results/BUW-FZJ/BUW-FZJ_PMMA01_Gasification_q50_Temp_R3.csv
Time,T_back_1
[s],[K]
0.0,291.2
1.056409,291.2
2.112818,291.2
3.16923,291.2
4.04957,291.2
5.10598,291.2
6.16239,291.2
7.04273,291.2
8.09914,291.2
9.15554,291.202
10.0359,291.206
11.0923,291.215
12.1487,291.234
13.029,291.261
14.0855,291.303
15.1419,291.369
16.0222,291.449
17.0786,291.554
18.135,291.696
19.0154,291.854
20.0718,292.041
21.12818,292.279
22.0085,292.527
23.06493,292.805
24.1213,293.143
25.00168,293.482
26.0581,293.851
27.1145,294.284
28.1709,294.75
29.0512,295.203
30.1077,295.683
31.1641,296.232
32.0444,296.759
33.1008,297.308
34.1572,297.931
35.0376,298.521
36.094,299.131
37.1504,299.816
38.0307,300.461
39.0871,301.122
40.1435,301.86
41.0239,302.55
42.0803,303.254
43.1367,304.036
44.017,304.764
45.0735,305.503
46.12986,306.321
47.0102,307.08
48.06661,307.847
49.123,308.694
50.00336,309.477
51.0598,310.268
52.1162,311.137
53.1726,312.012
54.0529,312.82
55.1093,313.632
56.1657,314.522
57.0461,315.342
58.1025,316.164
59.1589,317.064
60.0392,317.891
61.0957,318.718
62.1521,319.622
63.0324,320.451
64.0888,321.2797
65.1452,322.182
66.0256,323.008
67.082,323.832
68.1384,324.728
69.0187,325.549
70.0751,326.371
71.13154,327.266
72.0119,328.086
73.06829,328.906
74.1247,329.8
75.005,330.619
76.0614,331.437
77.1179,332.328
78.1743,333.217
79.0546,334.032
80.111,334.845
81.1674,335.731
82.0478,336.542
83.1042,337.351
84.1606,338.231
85.0409,339.037
86.0973,339.841
87.1537,340.715
88.0341,341.515
89.0905,342.313
90.1469,343.181
91.0272,343.974
92.0837,344.766
93.1401,345.626
94.0204,346.412
95.0768,347.196
96.13322,348.048
97.0136,348.827
98.06997,349.603
99.1264,350.447
100.007,351.217
101.063,351.984
102.12,352.818
103.176,353.649
104.056,354.407
105.1127,355.162
106.169,355.982
107.049,356.731
108.106,357.476
109.162,358.285
110.043,359.023
111.099,359.758
112.155,360.556
113.036,361.284
114.092,362.007
115.149,362.793
116.029,363.509
117.085,364.221
118.142,364.994
119.022,365.698
120.078,366.398
121.1349,367.157
122.015,367.848
123.072,368.535
124.128,369.278
125.0084,369.955
126.065,370.627
127.121,371.355
128.002,372.016
129.058,372.672
130.114,373.381
131.171,374.083
132.051,374.721
133.108,375.354
134.164,376.04
135.044,376.665
136.101,377.287
137.1571,377.962
138.037,378.578
139.094,379.191
140.15,379.857
141.0306,380.465
142.087,381.071
143.143,381.73
144.024,382.332
145.08,382.933
146.137,383.586
147.017,384.185
148.073,384.782
149.13,385.431
150.01,386.026
151.066,386.62
152.1229,387.267
153.003,387.86
154.06,388.452
155.116,389.097
156.172,389.742
157.053,390.333
158.109,390.924
159.166,391.57
160.046,392.161
161.102,392.753
162.159,393.398
163.039,393.991
164.096,394.584
165.152,395.231
166.032,395.825
167.089,396.4203
168.1451,397.07
169.025,397.668
170.082,398.266
171.138,398.92
172.0186,399.521
173.075,400.123
174.131,400.781
175.012,401.387
176.068,401.994
177.125,402.659
178.005,403.27
179.061,403.883
180.118,404.554
181.174,405.228
182.054,405.848
183.1109,406.471
184.1673,407.154
185.048,407.782
186.104,408.414
187.16,409.106
188.0408,409.743
189.097,410.386
190.154,411.089
191.034,411.737
192.09,412.39
193.147,413.105
194.027,413.766
195.084,414.431
196.14,415.1617
197.02,415.836
198.077,416.516
199.1331,417.263
200.013,417.953
201.07,418.649
202.126,419.414
203.0066,420.122
204.063,420.837
205.119,421.625
206.176,422.421
207.056,423.159
208.113,423.905
209.169,424.727
210.049,425.485
211.106,426.25
212.162,427.0902
213.042,427.867
214.099,428.649
215.1553,429.509
216.036,430.304
217.092,431.105
218.148,431.986
219.0288,432.8
220.085,433.621
221.142,434.525
222.022,435.36
223.078,436.202
224.135,437.13
225.015,437.988
226.072,438.853
227.128,439.806
228.008,440.688
229.065,441.579
230.1211,442.56
231.001,443.468
232.058,444.386
233.114,445.398
234.171,446.421
235.051,447.369
236.107,448.328
237.164,449.385
238.044,450.366
239.101,451.358
240.157,452.454
241.037,453.47
242.094,454.5
243.15,455.637
244.03,456.694
245.087,457.765
246.1433,458.9489
247.024,460.05
248.08,461.168
249.136,462.405
250.0168,463.558
251.073,464.728
252.13,466.027
253.01,467.238
254.066,468.471
255.123,469.842
256.003,471.123
257.06,472.431
258.116,473.89
259.172,475.386
260.053,476.788
261.109,478.22
262.1655,479.818
263.046,481.313
264.102,482.841
265.159,484.543
266.039,486.136
267.095,487.765
268.152,489.58
269.032,491.281
270.089,493.019
271.145,494.9586
272.025,496.776
273.082,498.635
274.138,500.7091
275.018,502.655
276.075,504.646
277.1313,506.869
278.012,508.956
279.068,511.092
280.124,513.478
281.0048,515.719
282.061,518.014
283.118,520.583
284.174,523.225
285.054,525.706
286.111,528.254
287.167,531.11
288.048,533.794
289.104,536.553
290.16,539.648
291.041,542.578
292.097,545.6
293.1535,549.015
294.034,552.272
295.09,555.662
296.147,559.557
297.027,563.3521
298.083,567.414
299.14,572.324
300.02,577.012
301.077,581.105
302.133,585.024
303.013,588.233
304.07,591.178
305.126,594.148
306.006,596.7
307.063,599.056
308.1193,601.427
309.1757,603.651
310.056,605.575
311.112,607.394
312.169,609.27
313.0492,610.906
314.106,612.454
315.162,614.07
316.042,615.4837
317.099,616.831
318.155,618.251
319.036,619.492
320.092,620.688
321.148,621.955
322.029,623.069
323.085,624.151
324.1415,625.306
325.022,626.33
326.078,627.327
327.135,628.401
328.015,629.366
329.071,630.306
330.128,631.32
331.008,632.239
332.065,633.146
333.121,634.123
334.001,635.015
335.058,635.899
336.114,636.858
337.171,637.81
338.051,638.683
339.107,639.553
340.1637,640.504
341.044,641.371
342.1,642.245
343.157,643.198
344.0372,644.077
345.094,644.953
346.15,645.914
347.03,646.803
348.087,647.692
349.143,648.673
350.024,649.581
351.08,650.488
352.136,651.488
353.017,652.417
354.073,653.35
355.1295,654.386
356.01,655.343
357.066,656.312
358.123,657.374
359.003,658.374
360.0594,659.385
361.116,660.488
362.172,661.63
363.053,662.697
364.109,663.762
365.165,664.975
366.046,666.11
367.102,667.235
368.159,668.536
369.039,669.743
370.095,670.96
371.1517,672.388
372.032,673.691
373.088,675.0373
374.145,676.629
375.0252,678.062
376.082,679.612
377.138,681.408
378.018,682.998
379.075,684.8945
380.131,686.965
381.012,688.9446
382.068,691.207
383.124,693.66
384.005,696.477
385.061,699.135
386.117,703.041
387.1739,707.051
388.054,711.776
389.111,717.105
390.167,725.614
391.0474,735.449
392.104,751.859
393.16,781.322
394.041,808.492
395.097,825.72
396.153,838.075
397.034,846.031
398.09,851.971
399.147,857.007
400.027,860.717
401.083,863.787
402.1397,866.642
403.02,868.905
404.076,870.916
405.133,872.889
406.0132,874.531
407.07,876.037
408.126,877.554
409.006,878.849
410.063,880.059
411.119,881.3
412.176,882.469
413.056,883.488
414.112,884.452
415.169,885.453
416.049,886.333
417.105,887.1712
418.1619,888.048
419.042,888.827
420.099,889.568
421.155,890.35
422.0354,891.0439
423.092,891.707
424.148,892.415
425.029,893.029
426.085,893.6335
427.141,894.263
428.022,894.826
429.078,895.367
430.135,895.935
431.015,896.451
432.071,896.9361
433.128,897.461
434.008,897.926
435.064,898.365
436.121,898.844
437.001,899.27
438.0576,899.672
439.114,900.106
440.17,900.535
441.051,900.909
442.107,901.263
443.164,901.648
444.044,902.004
445.1,902.339
446.157,902.695
447.037,903.007
448.093,903.31
449.1499,903.639
450.03,903.939
451.087,904.229
452.143,904.533
453.0234,904.803
454.08,905.068
455.136,905.35
456.017,905.603
457.073,905.838
458.129,906.099
459.01,906.3333
460.066,906.563
461.123,906.806
462.003,907.023
463.059,907.237
464.116,907.464
465.1721,907.684
466.052,907.883
467.109,908.077
468.165,908.283
469.0456,908.469
470.102,908.65
471.158,908.843
472.039,909.016
473.095,909.1861
474.152,909.367
475.032,909.529
476.088,909.689
477.145,909.859
478.025,910.011
479.081,910.161
480.1379,910.321
481.018,910.464
482.075,910.605
483.131,910.756
484.0114,910.892
485.0678,911.025
486.124,911.166
487.005,911.293
488.061,911.419
489.117,911.554
490.174,911.686
491.054,911.805
492.111,911.921
493.167,912.045
494.047,912.158
495.104,912.268
496.1601,912.387
497.04,912.494
498.097,912.599
499.153,912.711
500.0,912.809