File: PMMA/Validation_Results/BUW-FZJ/BUW-FZJ_ApproachB_Gasification_q50_Mass_R5.csv
Time,Mass
[s],[g]
0.0,28.0385
1.056409,28.0385
2.112818,28.0385
3.16923,28.0385
4.04957,28.0385
5.10598,28.0385
6.16239,28.0385
7.04273,28.0385
8.09914,28.0385
9.15554,28.0385
10.0359,28.0385
11.0923,28.0385
12.1487,28.0385
13.029,28.0385
14.0855,28.0384
15.1419,28.0384
16.0222,28.0383
17.0786,28.0382
18.135,28.038
19.0154,28.0377
20.0718,28.0373
21.12818,28.0366
22.0085,28.0357
23.06493,28.0343
24.1213,28.0323
25.00168,28.0299
26.0581,28.0266
27.1145,28.022
28.1709,28.0161
29.0512,28.0093
30.1077,28.0011
31.1641,27.9903
32.0444,27.9787
33.1008,27.9652
34.1572,27.9484
35.0376,27.9311
36.094,27.9118
37.1504,27.8887
38.0307,27.8657
39.0871,27.8408
40.1435,27.8118
41.0239,27.7836
42.0803,27.7538
43.1367,27.7196
44.017,27.6869
45.0735,27.6528
46.12986,27.6143
47.0102,27.5777
48.06661,27.54
49.123,27.4977
50.00336,27.4579
51.0598,27.4171
52.1162,27.3716
53.1726,27.325
54.0529,27.2815
55.1093,27.2373
56.1657,27.1881
57.0461,27.1423
58.1025,27.0959
59.1589,27.0444
60.0392,26.9967
61.0957,26.9483
62.1521,26.8949
63.0324,26.8454
64.0888,26.7953
65.1452,26.7401
66.0256,26.6891
67.082,26.6375
68.1384,26.5808
69.0187,26.5283
70.0751,26.4754
71.13154,26.4173
72.0119,26.3636
73.06829,26.3095
74.1247,26.2502
75.005,26.1954
76.0614,26.1402
77.1179,26.0797
78.1743,26.0188
79.0546,25.9627
80.111,25.9063
81.1674,25.8444
82.0478,25.7874
83.1042,25.7301
84.1606,25.6673
85.0409,25.6095
86.0973,25.5515
87.1537,25.4879
88.0341,25.4294
89.0905,25.3706
90.1469,25.30625
91.0272,25.247
92.0837,25.1876
93.1401,25.1226
94.0204,25.0627
95.0768,25.0027
96.13322,24.937
97.0136,24.8766
98.06997,24.816
99.1264,24.7497
100.007,24.6888
101.063,24.6276
102.12,24.5608
103.176,24.4937
104.056,24.4321
105.1127,24.3703
106.169,24.3027
107.049,24.2405
108.106,24.1783
109.162,24.1102
110.043,24.0476
111.099,23.9848
112.155,23.9162
113.036,23.8532
114.092,23.79
115.149,23.7209
116.029,23.6575
117.085,23.5939
118.142,23.5243
119.022,23.4604
120.078,23.3964
121.1349,23.3264
122.015,23.262
123.072,23.1976
124.128,23.1271
125.0084,23.0623
126.065,22.9974
127.121,22.9265
128.002,22.8613
129.058,22.79599
130.114,22.7245
131.171,22.6529
132.051,22.5871
133.108,22.5212
134.164,22.4491
135.044,22.3829
136.101,22.3165
137.1571,22.244
138.037,22.1773
139.094,22.1105
140.15,22.0375
141.0306,21.97037
142.087,21.9031
143.143,21.8296
144.024,21.762
145.08,21.6943
146.137,21.6203
147.017,21.5523
148.073,21.4842
149.13,21.4097
150.01,21.3413
151.066,21.2727
152.1229,21.1977
153.003,21.1288
154.06,21.0598
155.116,20.9843
156.172,20.9086
157.053,20.8391
158.109,20.7695
159.166,20.6933
160.046,20.6234
161.102,20.5533
162.159,20.4766
163.039,20.4062
164.096,20.3356
165.152,20.2585
166.032,20.1876
167.089,20.1166
168.1451,20.0389
169.025,19.9675
170.082,19.896
171.138,19.8179
172.0186,19.746
173.075,19.6741
174.131,19.5954
175.012,19.523
176.068,19.45058
177.125,19.3713
178.005,19.2985
179.061,19.2256
180.118,19.1458
181.174,19.0658
182.054,18.9923
183.1109,18.9187
184.1673,18.8382
185.048,18.7642
186.104,18.69
187.16,18.6089
188.0408,18.5344
189.097,18.4597
190.154,18.378
191.034,18.303
192.09,18.2277
193.147,18.1455
194.027,18.0699
195.084,17.9941
196.14,17.9113
197.02,17.8351
198.077,17.7588
199.1331,17.6754
200.013,17.5987
201.07,17.5218
202.126,17.4377
203.0066,17.3604
204.063,17.2829
205.119,17.1982
206.176,17.1132
207.056,17.0351
208.113,16.9568
209.169,16.8712
210.049,16.7925
211.106,16.7135
212.162,16.6272
213.042,16.5479
214.099,16.4684
215.1553,16.3814
216.036,16.3014
217.092,16.2212
218.148,16.1335
219.0288,16.0529
220.085,15.9721
221.142,15.8836
222.022,15.8023
223.078,15.7208
224.135,15.6316
225.015,15.5496
226.072,15.4673
227.128,15.3774
228.008,15.2946
229.065,15.2117
230.1211,15.1209
231.001,15.0374
232.058,14.9537
233.114,14.8622
234.171,14.7703
235.051,14.6858
236.107,14.6011
237.164,14.5083
238.044,14.4231
239.101,14.3375
240.157,14.2439
241.037,14.1578
242.094,14.0715
243.15,13.9769
244.03,13.89
245.087,13.8028
246.1433,13.7073
247.024,13.6195
248.08,13.5314
249.136,13.4349
250.0168,13.3462
251.073,13.2572
252.13,13.1597
253.01,13.0701
254.066,12.9802
255.123,12.8817
256.003,12.7911
257.06,12.7002
258.116,12.6006
259.172,12.5006
260.053,12.4087
261.109,12.3163
262.1655,12.2152
263.046,12.1222
264.102,12.0288
265.159,11.9265
266.039,11.8324
267.095,11.7379
268.152,11.6344
269.032,11.5391
270.089,11.4435
271.145,11.3387
272.025,11.2423
273.082,11.1455
274.138,11.0394
275.018,10.9417
276.075,10.8437
277.1313,10.7362
278.012,10.6373
279.068,10.538
280.124,10.4291
281.0048,10.3289
282.061,10.2283
283.118,10.118
284.174,10.0071
285.054,9.9051
286.111,9.80261
287.167,9.6903
288.048,9.586886
289.104,9.48301
290.16,9.36917
291.041,9.26436
292.097,9.15906
293.1535,9.04368
294.034,8.937442
295.09,8.83073
296.147,8.71379
297.027,8.60613
298.083,8.497992
299.14,8.37951
300.02,8.27043
301.077,8.16089
302.133,8.04088
303.013,7.93041
304.07,7.81948
305.126,7.69798
306.006,7.58616
307.063,7.4739
308.1193,7.35097
309.1757,7.227542
310.056,7.11398
311.112,7.00001
312.169,6.87524
313.0492,6.76047
314.106,6.64532
315.162,6.51929
316.042,6.40339
317.099,6.28713
318.155,6.15992
319.036,6.04297
320.092,5.925692
321.148,5.7974
322.029,5.67948
323.085,5.56126
324.1415,5.43196
325.022,5.313161
326.078,5.19407
327.135,5.06387
328.015,4.94425
329.071,4.82438
330.128,4.69334
331.008,4.572982
332.065,4.45239
333.121,4.320595
334.001,4.19956
335.058,4.07832
336.114,3.94585
337.171,3.81315
338.051,3.69132
339.107,3.56933
340.1637,3.43606
341.044,3.31376
342.1,3.19131
343.157,3.05759
344.0372,2.93489
345.094,2.8121
346.15,2.67806
347.03,2.55512
348.087,2.43214
349.143,2.29796
350.024,2.17498
351.08,2.05206
352.136,1.91805
353.017,1.79534
354.073,1.67285
355.1295,1.53949
356.01,1.41759
357.066,1.296162
358.123,1.16432
359.003,1.0442
360.0594,0.925067
361.116,0.796431
362.172,0.669672
363.053,0.555718
364.109,0.444797
365.165,0.328411
366.046,0.227744
367.102,0.136717
368.159,0.055035
369.039,0.009513
370.095,0.000121
371.1517,-3.46945e-15
372.032,-3.46945e-15
373.088,-3.46945e-15
374.145,-3.46945e-15
375.0252,-3.46945e-15
376.082,-3.46945e-15
377.138,-3.46945e-15
378.018,-3.46945e-15
379.075,-3.46945e-15
380.131,-3.46945e-15
381.012,-3.46945e-15
382.068,-3.46945e-15
383.124,-3.46945e-15
384.005,-3.46945e-15
385.061,-3.46945e-15
386.117,-3.46945e-15
387.1739,-3.46945e-15
388.054,-3.46945e-15
389.111,-3.46945e-15
390.167,-3.46945e-15
391.0474,-3.46945e-15
392.104,-3.46945e-15
393.16,-3.46945e-15
394.041,-3.46945e-15
395.097,-3.46945e-15
396.153,-3.46945e-15
397.034,-3.46945e-15
398.09,-3.46945e-15
399.147,-3.46945e-15
400.027,-3.46945e-15
401.083,-3.46945e-15
402.1397,-3.46945e-15
403.02,-3.46945e-15
404.076,-3.46945e-15
405.133,-3.46945e-15
406.0132,-3.46945e-15
407.07,-3.46945e-15
408.126,-3.46945e-15
409.006,-3.46945e-15
410.063,-3.46945e-15
411.119,-3.46945e-15
412.176,-3.46945e-15
413.056,-3.46945e-15
414.112,-3.46945e-15
415.169,-3.46945e-15
416.049,-3.46945e-15
417.105,-3.46945e-15
418.1619,-3.46945e-15
419.042,-3.46945e-15
420.099,-3.46945e-15
421.155,-3.46945e-15
422.0354,-3.46945e-15
423.092,-3.46945e-15
424.148,-3.46945e-15
425.029,-3.46945e-15
426.085,-3.46945e-15
427.141,-3.46945e-15
428.022,-3.46945e-15
429.078,-3.46945e-15
430.135,-3.46945e-15
431.015,-3.46945e-15
432.071,-3.46945e-15
433.128,-3.46945e-15
434.008,-3.46945e-15
435.064,-3.46945e-15
436.121,-3.46945e-15
437.001,-3.46945e-15
438.0576,-3.46945e-15
439.114,-3.46945e-15
440.17,-3.46945e-15
441.051,-3.46945e-15
442.107,-3.46945e-15
443.164,-3.46945e-15
444.044,-3.46945e-15
445.1,-3.46945e-15
446.157,-3.46945e-15
447.037,-3.46945e-15
448.093,-3.46945e-15
449.1499,-3.46945e-15
450.03,-3.46945e-15
451.087,-3.46945e-15
452.143,-3.46945e-15
453.0234,-3.46945e-15
454.08,-3.46945e-15
455.136,-3.46945e-15
456.017,-3.46945e-15
457.073,-3.46945e-15
458.129,-3.46945e-15
459.01,-3.46945e-15
460.066,-3.46945e-15
461.123,-3.46945e-15
462.003,-3.46945e-15
463.059,-3.46945e-15
464.116,-3.46945e-15
465.1721,-3.46945e-15
466.052,-3.46945e-15
467.109,-3.46945e-15
468.165,-3.46945e-15
469.0456,-3.46945e-15
470.102,-3.46945e-15
471.158,-3.46945e-15
472.039,-3.46945e-15
473.095,-3.46945e-15
474.152,-3.46945e-15
475.032,-3.46945e-15
476.088,-3.46945e-15
477.145,-3.46945e-15
478.025,-3.46945e-15
479.081,-3.46945e-15
480.1379,-3.46945e-15
481.018,-3.46945e-15
482.075,-3.46945e-15
483.131,-3.46945e-15
484.0114,-3.46945e-15
485.0678,-3.46945e-15
486.124,-3.46945e-15
487.005,-3.46945e-15
488.061,-3.46945e-15
489.117,-3.46945e-15
490.174,-3.46945e-15
491.054,-3.46945e-15
492.111,-3.46945e-15
493.167,-3.46945e-15
494.047,-3.46945e-15
495.104,-3.46945e-15
496.1601,-3.46945e-15
497.04,-3.46945e-15
498.097,-3.46945e-15
499.153,-3.46945e-15
500.0,-3.46945e-15