File: PMMA/Validation_Results/BUW-FZJ/BUW-FZJ_ApproachB_Gasification_q50_Temp_R1.csv
Time,T_back_1
[s],[K]
0.0,290.65
1.056409,290.65
2.112818,290.65
3.16923,290.65
4.04957,290.65
5.10598,290.65
6.16239,290.65
7.04273,290.65
8.09914,290.65
9.15554,290.65
10.0359,290.65
11.0923,290.65
12.1487,290.651
13.029,290.652
14.0855,290.655
15.1419,290.661
16.0222,290.669
17.0786,290.682
18.135,290.702
19.0154,290.729
20.0718,290.765
21.12818,290.816
22.0085,290.876
23.06493,290.951
24.1213,291.051
25.00168,291.162
26.0581,291.292
27.1145,291.458
28.1709,291.651
29.0512,291.851
30.1077,292.078
31.1641,292.354
32.0444,292.635
33.1008,292.943
34.1572,293.312
35.0376,293.679
36.094,294.075
37.1504,294.541
38.0307,294.998
39.0871,295.485
40.1435,296.05
41.0239,296.598
42.0803,297.176
43.1367,297.839
44.017,298.476
45.0735,299.142
46.12986,299.9
47.0102,300.624
48.06661,301.375
49.123,302.224
50.00336,303.028
51.0598,303.859
52.1162,304.793
53.1726,305.755
54.0529,306.661
55.1093,307.589
56.1657,308.627
57.0461,309.6
58.1025,310.594
59.1589,311.701
60.0392,312.735
61.0957,313.787
62.1521,314.955
63.0324,316.043
64.0888,317.148
65.1452,318.37
66.0256,319.506
67.082,320.657
68.1384,321.927
69.0187,323.105
70.0751,324.296
71.13154,325.609
72.0119,326.823
73.06829,328.049
74.1247,329.398
75.005,330.645
76.0614,331.901
77.1179,333.282
78.1743,334.673
79.0546,335.956
80.111,337.247
81.1674,338.664
82.0478,339.969
83.1042,341.282
84.1606,342.72
85.0409,344.045
86.0973,345.376
87.1537,346.834
88.0341,348.176
89.0905,349.522
90.1469,350.996
91.0272,352.352
92.0837,353.712
93.1401,355.2
94.0204,356.568
95.0768,357.94
96.13322,359.44
97.0136,360.818
98.06997,362.2
99.1264,363.71
100.007,365.097
101.063,366.487
102.12,368.007
103.176,369.529
104.056,370.926
105.1127,372.326
106.169,373.855
107.049,375.259
108.106,376.665
109.162,378.2
110.043,379.61
111.099,381.021
112.155,382.562
113.036,383.9756
114.092,385.391
115.149,386.9369
116.029,388.355
117.085,389.775
118.142,391.325
119.022,392.747
120.078,394.171
121.1349,395.725
122.015,397.151
123.072,398.578
124.128,400.136
125.0084,401.565
126.065,402.994
127.121,404.555
128.002,405.987
129.058,407.42
130.114,408.984
131.171,410.549
132.051,411.984
133.108,413.42
134.164,414.988
135.044,416.426
136.101,417.864
137.1571,419.435
138.037,420.875
139.094,422.316
140.15,423.889
141.0306,425.331
142.087,426.775
143.143,428.351
144.024,429.796
145.08,431.241
146.137,432.82
147.017,434.267
148.073,435.715
149.13,437.296
150.01,438.746
151.066,440.197
152.1229,441.78
153.003,443.233
154.06,444.686
155.116,446.273
156.172,447.86
157.053,449.316
158.109,450.772
159.166,452.362
160.046,453.821
161.102,455.28
162.159,456.873
163.039,458.3338
164.096,459.795
165.152,461.3908
166.032,462.854
167.089,464.319
168.1451,465.917
169.025,467.383
170.082,468.85
171.138,470.451
172.0186,471.92
173.075,473.389
174.131,474.994
175.012,476.465
176.068,477.937
177.125,479.545
178.005,481.019
179.061,482.494
180.118,484.104
181.174,485.715
182.054,487.193
183.1109,488.671
184.1673,490.285
185.048,491.765
186.104,493.246
187.16,494.862
188.0408,496.344
189.097,497.827
190.154,499.445
191.034,500.929
192.09,502.414
193.147,504.034
194.027,505.52
195.084,507.006
196.14,508.628
197.02,510.116
198.077,511.604
199.1331,513.227
200.013,514.715
201.07,516.204
202.126,517.8279
203.0066,519.317
204.063,520.805
205.119,522.429
206.176,524.053
207.056,525.54
208.113,527.028
209.169,528.65
210.049,530.136
211.106,531.622
212.162,533.241
213.042,534.726
214.099,536.208
215.1553,537.824
216.036,539.303
217.092,540.78
218.148,542.388
219.0288,543.862
220.085,545.332
221.142,546.932
222.022,548.396
223.078,549.857
224.135,551.447
225.015,552.901
226.072,554.351
227.128,555.929
228.008,557.3719
229.065,558.811
230.1211,560.373
231.001,561.8
232.058,563.221
233.114,564.765
234.171,566.302
235.051,567.705
236.107,569.1014
237.164,570.617
238.044,572
239.101,573.375
240.157,574.867
241.037,576.227
242.094,577.578
243.15,579.043
244.03,580.378
245.087,581.704
246.1433,583.139
247.024,584.446
248.08,585.742
249.136,587.145
250.0168,588.419
251.073,589.684
252.13,591.054
253.01,592.298
254.066,593.534
255.123,594.87
256.003,596.087
257.06,597.294
258.116,598.601
259.172,599.9
260.053,601.082
261.109,602.257
262.1655,603.531
263.046,604.693
264.102,605.85
265.159,607.1061
266.039,608.255
267.095,609.4
268.152,610.648
269.032,611.79
270.089,612.933
271.145,614.181
272.025,615.327
273.082,616.477
274.138,617.736
275.018,618.896
276.075,620.063
277.1313,621.345
278.012,622.531
279.068,623.728
280.124,625.048
281.0048,626.271
282.061,627.511
283.118,628.882
284.174,630.276
285.054,631.575
286.111,632.896
287.167,634.365
288.048,635.7371
289.104,637.139
290.16,638.701
291.041,640.167
292.097,641.6711
293.1535,643.356
294.034,644.943
295.09,646.577
296.147,648.417
297.027,650.16
298.083,651.964
299.14,654.006
300.02,655.951
301.077,657.979
302.133,660.289
303.013,662.51
304.07,664.842
305.126,667.5263
306.006,670.137
307.063,672.914
308.1193,676.158
309.1757,679.681
310.056,683.194
311.112,687.052
312.169,691.747
313.0492,696.616
314.106,702.285
315.162,709.766
316.042,718.462
317.099,730.441
318.155,750.493
319.036,778.748
320.092,806.696
321.148,828.496
322.029,843.071
323.085,854.061
324.1415,863.351
325.022,870.062
326.078,875.446
327.135,880.252
328.015,883.909
329.071,886.984
330.128,889.842
331.008,892.1006
332.065,894.069
333.121,895.964
334.001,897.5078
335.058,898.894
336.114,900.263
337.171,901.5043
338.051,902.549
339.107,903.511
340.1637,904.4839
341.044,905.315
342.1,906.092
343.157,906.892
344.0372,907.585
345.094,908.2405
346.15,908.919
347.03,909.509
348.087,910.071
349.143,910.655
350.024,911.1667
351.08,911.656
352.136,912.166
353.017,912.6146
354.073,913.045
355.1295,913.497
356.01,913.895
357.066,914.2801
358.123,914.684
359.003,915.042
360.0594,915.388
361.116,915.753
362.172,916.107
363.053,916.42
364.109,916.724
365.165,917.047
366.046,917.333
367.102,917.613
368.159,917.909
369.039,918.172
370.095,918.429
371.1517,918.702
372.032,918.946
373.088,919.1844
374.145,919.437
375.0252,919.664
376.082,919.886
377.138,920.122
378.018,920.333
379.075,920.54
380.131,920.761
381.012,920.9585
382.068,921.1525
383.124,921.359
384.005,921.545
385.061,921.728
386.117,921.922
387.1739,922.113
388.054,922.284
389.111,922.452
390.167,922.633
391.0474,922.795
392.104,922.953
393.16,923.124
394.041,923.278
395.097,923.429
396.153,923.59
397.034,923.736
398.09,923.879
399.147,924.033
400.027,924.171
401.083,924.3074
402.1397,924.454
403.02,924.586
404.076,924.716
405.133,924.8545
406.0132,924.981
407.07,925.105
408.126,925.239
409.006,925.359
410.063,925.477
411.119,925.605
412.176,925.73
413.056,925.843
414.112,925.956
415.169,926.077
416.049,926.1859
417.105,926.294
418.1619,926.411
419.042,926.517
420.099,926.623
421.155,926.736
422.0354,926.837
423.092,926.938
424.148,927.047
425.029,927.146
426.085,927.244
427.141,927.349
428.022,927.444
429.078,927.537
430.135,927.639
431.015,927.731
432.071,927.82
433.128,927.918
434.008,928.007
435.064,928.095
436.121,928.189
437.001,928.2736
438.0576,928.358
439.114,928.448
440.17,928.538
441.051,928.62
442.107,928.701
443.164,928.787
444.044,928.865
445.1,928.943
446.157,929.027
447.037,929.103
448.093,929.178
449.1499,929.259
450.03,929.333
451.087,929.405
452.143,929.484
453.0234,929.555
454.08,929.625
455.136,929.702
456.017,929.77
457.073,929.838
458.129,929.912
459.01,929.98
460.066,930.046
461.123,930.118
462.003,930.1825
463.059,930.246
464.116,930.316
465.1721,930.384
466.052,930.447
467.109,930.509
468.165,930.577
469.0456,930.638
470.102,930.698
471.158,930.763
472.039,930.822
473.095,930.88
474.152,930.943
475.032,931.001
476.088,931.058
477.145,931.119
478.025,931.176
479.081,931.2316
480.1379,931.292
481.018,931.346
482.075,931.4
483.131,931.459
484.0114,931.512
485.0678,931.565
486.124,931.623
487.005,931.675
488.061,931.726
489.117,931.781
490.174,931.836
491.054,931.887
492.111,931.937
493.167,931.991
494.047,932.04
495.104,932.089
496.1601,932.142
497.04,932.191
498.097,932.238
499.153,932.289
500.0,932.335