File: PMMA/Validation_Results/BUW-FZJ/BUW-FZJ_PMMA01_Gasification_q50_Temp_R1.csv
Time,T_back_1
[s],[K]
0.0,290.65
1.056409,290.65
2.112818,290.65
3.16923,290.65
4.04957,290.65
5.10598,290.65
6.16239,290.65
7.04273,290.652
8.09914,290.659
9.15554,290.676
10.0359,290.708
11.0923,290.763
12.1487,290.857
13.029,290.981
14.0855,291.147
15.1419,291.38
16.0222,291.642
17.0786,291.956
18.135,292.355
19.0154,292.772
20.0718,293.238
21.12818,293.799
22.0085,294.359
23.06493,294.963
24.1213,295.667
25.00168,296.35
26.0581,297.069
27.1145,297.89
28.1709,298.747
29.0512,299.561
30.1077,300.401
31.1641,301.343
32.0444,302.229
33.1008,303.136
34.1572,304.145
35.0376,305.087
36.094,306.045
37.1504,307.104
38.0307,308.088
39.0871,309.084
40.1435,310.18
41.0239,311.194
42.0803,312.216
43.1367,313.338
44.017,314.372
45.0735,315.411
46.12986,316.548
47.0102,317.593
48.06661,318.64
49.123,319.782
50.00336,320.829
51.0598,321.874
52.1162,323.011
53.1726,324.144
54.0529,325.18
55.1093,326.215
56.1657,327.344
57.0461,328.377
58.1025,329.409
59.1589,330.534
60.0392,331.563
61.0957,332.591
62.1521,333.71
63.0324,334.733
64.0888,335.755
65.1452,336.866
66.0256,337.882
67.082,338.895
68.1384,339.997
69.0187,341.004
70.0751,342.007
71.13154,343.097
72.0119,344.093
73.06829,345.085
74.1247,346.163
75.005,347.147
76.0614,348.126
77.1179,349.189
78.1743,350.247
79.0546,351.213
80.111,352.172
81.1674,353.214
82.0478,354.165
83.1042,355.109
84.1606,356.133
85.0409,357.067
86.0973,357.995
87.1537,359.001
88.0341,359.917
89.0905,360.828
90.1469,361.814
91.0272,362.711
92.0837,363.602
93.1401,364.567
94.0204,365.445
95.0768,366.315
96.13322,367.256
97.0136,368.112
98.06997,368.96
99.1264,369.876
100.007,370.708
101.063,371.531
102.12,372.42
103.176,373.297
104.056,374.091
105.1127,374.877
106.169,375.726
107.049,376.497
108.106,377.262
109.162,378.091
110.043,378.846
111.099,379.596
112.155,380.41
113.036,381.151
114.092,381.889
115.149,382.692
116.029,383.4237
117.085,384.153
118.142,384.946
119.022,385.67
120.078,386.393
121.1349,387.178
122.015,387.897
123.072,388.614
124.128,389.396
125.0084,390.111
126.065,390.825
127.121,391.603
128.002,392.316
129.058,393.0281
130.114,393.805
131.171,394.582
132.051,395.294
133.108,396.006
134.164,396.783
135.044,397.497
136.101,398.211
137.1571,398.99
138.037,399.706
139.094,400.423
140.15,401.207
141.0306,401.927
142.087,402.649
143.143,403.438
144.024,404.163
145.08,404.891
146.137,405.688
147.017,406.421
148.073,407.157
149.13,407.962
150.01,408.704
151.066,409.449
152.1229,410.266
153.003,411.018
154.06,411.774
155.116,412.603
156.172,413.437
157.053,414.208
158.109,414.983
159.166,415.834
160.046,416.621
161.102,417.412
162.159,418.283
163.039,419.088
164.096,419.9
165.152,420.795
166.032,421.621
167.089,422.458
168.1451,423.381
169.025,424.235
170.082,425.097
171.138,426.044
172.0186,426.918
173.075,427.799
174.131,428.767
175.012,429.661
176.068,430.561
177.125,431.551
178.005,432.465
179.061,433.387
180.118,434.401
181.174,435.423
182.054,436.369
183.1109,437.322
184.1673,438.371
185.048,439.341
186.104,440.32
187.16,441.399
188.0408,442.397
189.097,443.4038
190.154,444.514
191.034,445.542
192.09,446.581
193.147,447.726
194.027,448.787
195.084,449.861
196.14,451.045
197.02,452.143
198.077,453.255
199.1331,454.484
200.013,455.625
201.07,456.78
202.126,458.058
203.0066,459.245
204.063,460.45
205.119,461.784
206.176,463.14
207.056,464.403
208.113,465.688
209.169,467.113
210.049,468.444
211.106,469.801
212.162,471.311
213.042,472.724
214.099,474.171
215.1553,475.788
216.036,477.303
217.092,478.853
218.148,480.581
219.0288,482.2
220.085,483.855
221.142,485.699
222.022,487.428
223.078,489.196
224.135,491.167
225.015,493.016
226.072,494.906
227.128,497.017
228.008,498.998
229.065,501.026
230.1211,503.292
231.001,505.419
232.058,507.598
233.114,510.034
234.171,512.534
235.051,514.883
236.107,517.292
237.164,519.987
238.044,522.521
239.101,525.123
240.157,528.033
241.037,530.772
242.094,533.591
243.15,536.758
244.03,539.755
245.087,542.852
246.1433,546.343
247.024,549.66
248.08,553.108
249.136,557.047
250.0168,560.871
251.073,564.9657
252.13,569.846
253.01,574.757
254.066,579.383
255.123,583.684
256.003,587.169
257.06,590.33
258.116,593.488
259.172,596.396
260.053,598.863
261.109,601.193
262.1655,603.521
263.046,605.535
264.102,607.434
265.159,609.394
266.039,611.087
267.095,612.691
268.152,614.366
269.032,615.82
270.089,617.211
271.145,618.666
272.025,619.94
273.082,621.1647
274.138,622.455
275.018,623.596
276.075,624.699
277.1313,625.872
278.012,626.916
279.068,627.928
280.124,629.021
281.0048,629.996
282.061,630.9502
283.118,631.9834
284.174,633
285.054,633.917
286.111,634.823
287.167,635.81
288.048,636.704
289.104,637.595
290.16,638.56
291.041,639.4456
292.097,640.328
293.1535,641.291
294.034,642.174
295.09,643.057
296.147,644.027
297.027,644.914
298.083,645.806
299.14,646.784
300.02,647.682
301.077,648.589
302.133,649.586
303.013,650.508
304.07,651.432
305.126,652.454
306.006,653.397
307.063,654.347
308.1193,655.399
309.1757,656.466
310.056,657.458
311.112,658.452
312.169,659.567
313.0492,660.595
314.106,661.637
315.162,662.81
316.042,663.898
317.099,664.989
318.155,666.239
319.036,667.402
320.092,668.564
321.148,669.918
322.029,671.153
323.085,672.425
324.1415,673.91
325.022,675.243
326.078,676.69
327.135,678.332
328.015,679.814
329.071,681.51
330.128,683.373
331.008,685.098
332.065,687.102
333.121,689.2373
334.001,691.559
335.058,693.917
336.114,696.751
337.171,700.107
338.051,703.294
339.107,707.572
340.1637,712.365
341.044,718.708
342.1,725.945
343.157,738.298
344.0372,756.408
345.094,786.266
346.15,815.085
347.03,830.772
348.087,840.958
349.143,848.807
350.024,854.176
351.08,858.363
352.136,862.085
353.017,864.933
354.073,867.377
355.1295,869.717
356.01,871.631
357.066,873.359
358.123,875.077
359.003,876.5304
360.0594,877.873
361.116,879.243
362.172,880.521
363.053,881.626
364.109,882.672
365.165,883.755
366.046,884.7
367.102,885.599
368.159,886.539
369.039,887.369
370.095,888.155
371.1517,888.9882
372.032,889.721
373.088,890.425
374.145,891.175
375.0252,891.822
376.082,892.467
377.138,893.1276
378.018,893.728
379.075,894.294
380.131,894.905
381.012,895.436
382.068,895.951
383.124,896.507
384.005,896.988
385.061,897.465
386.117,897.966
387.1739,898.437
388.054,898.8738
389.111,899.296
390.167,899.733
391.0474,900.122
392.104,900.514
393.16,900.919
394.041,901.274
395.097,901.619
396.153,902.001
397.034,902.337
398.09,902.661
399.147,903.003
400.027,903.299
401.083,903.597
402.1397,903.915
403.02,904.211
404.076,904.488
405.133,904.782
406.0132,905.045
407.07,905.302
408.126,905.576
409.006,905.82
410.063,906.047
411.119,906.301
412.176,906.549
413.056,906.771
414.112,906.987
415.169,907.218
416.049,907.425
417.105,907.626
418.1619,907.8419
419.042,908.035
420.099,908.223
421.155,908.425
422.0354,908.6052
423.092,908.782
424.148,908.97
425.029,909.139
426.085,909.3043
427.141,909.481
428.022,909.64
429.078,909.795
430.135,909.961
431.015,910.11
432.071,910.257
433.128,910.413
434.008,910.553
435.064,910.691
436.121,910.838
437.001,910.971
438.0576,911.101
439.114,911.239
440.17,911.3758
441.051,911.499
442.107,911.62
443.164,911.749
444.044,911.865
445.1,911.979
446.157,912.101
447.037,912.211
448.093,912.32
449.1499,912.436
450.03,912.5413
451.087,912.644
452.143,912.754
453.0234,912.853
454.08,912.9589
455.136,913.079
456.017,913.174
457.073,913.268
458.129,913.368
459.01,913.458
460.066,913.547
461.123,913.644
462.003,913.731
463.059,913.795
464.116,913.885
465.1721,913.975
466.052,914.0561
467.109,914.136
468.165,914.222
469.0456,914.314
470.102,914.399
471.158,914.481
472.039,914.556
473.095,914.629
474.152,914.708
475.032,914.78
476.088,914.847
477.145,914.905
478.025,914.975
479.081,915.043
480.1379,915.116
481.018,915.1821
482.075,915.26
483.131,915.341
484.0114,915.405
485.0678,915.469
486.124,915.537
487.005,915.599
488.061,915.66
489.117,915.714
490.174,915.7687
491.054,915.829
492.111,915.887
493.167,915.951
494.047,916.022
495.104,916.087
496.1601,916.148
497.04,916.204
498.097,916.259
499.153,916.319
500.0,916.361