File: PMMA/Validation_Results/BUW-FZJ/BUW-FZJ_PMMA01_Gasification_q50_MLR_R5.csv
Time,MLR_CH4,MLR_CO2,MLR_Combined
[s],[g/m2/s],[g/m2/s],[g/m2/s]
0.0,0.0,0.0,0.0
1.056409,1.09227e-05,0.000447629,0.000458551
2.112818,0.000671552,0.00304248,0.00371403
3.16923,0.0078791,0.0130851,0.0209642
4.04957,0.0339786,0.031419,0.0653976
5.10598,0.102529,0.0603021,0.162831
6.16239,0.2584627,0.104417,0.36288
7.04273,0.511863,0.157625,0.669488
8.09914,0.878605,0.222195,1.1008
9.15554,1.30405,0.299992,1.60404
10.0359,1.55013,0.371734,1.92187
11.0923,1.54075,0.437056,1.97781
12.1487,1.3787,0.494554,1.87326
13.029,1.2852,0.530974,1.81617
14.0855,1.27709,0.553594,1.83069
15.1419,1.320439,0.570368,1.89081
16.0222,1.38859,0.585241,1.97383
17.0786,1.48166,0.604998,2.08665
18.135,1.60483,0.6354943,2.24032
19.0154,1.73694,0.673725,2.41066
20.0718,1.88671,0.722291,2.609
21.12818,2.06741,0.786834,2.85424
22.0085,2.24587,0.856507,3.10238
23.06493,2.43831,0.936048,3.37436
24.1213,2.66229,1.03439,3.69668
25.00168,2.87791,1.13322,4.01113
26.0581,3.09838,1.2397,4.33808
27.1145,3.3457,1.36364,4.70934
28.1709,3.59922,1.4957,5.09493
29.0512,3.83357,1.62175,5.45532
30.1077,4.066549,1.75324,5.81979
31.1641,4.319774,1.90028,6.22006
32.0444,4.55045,2.03812,6.588567
33.1008,4.7768,2.17928,6.95608
34.1572,5.02046,2.335293,7.35575
35.0376,5.23923,2.47963,7.71887
36.094,5.44831,2.62293,8.07124
37.1504,5.67224,2.78029,8.45254
38.0307,5.867326,2.92289,8.79021
39.0871,6.05595,3.06428,9.12023
40.1435,6.25266,3.21711,9.46977
41.0239,6.42633,3.3561,9.78243
42.0803,6.59046,3.49199,10.0824
43.1367,6.76069,3.6377,10.3984
44.017,6.91067,3.7706,10.6813
45.0735,7.05233,3.89979,10.9521
46.12986,7.19752,4.03754,11.2351
47.0102,7.325,4.16205,11.4871
48.06661,7.44096,4.28075,11.7217
49.123,7.56614,4.41124,11.9774
50.00336,7.67179,4.5271,12.1989
51.0598,7.77016,4.63819,12.4083
52.1162,7.87478,4.76087,12.6357
53.1726,7.96806,4.87536,12.8434
54.0529,8.05274,4.98204,13.0348
55.1093,8.1298,5.08438,13.2142
56.1657,8.207222,5.19141,13.3986
57.0461,8.27819,5.29142,13.5696
58.1025,8.34106,5.38539,13.7264
59.1589,8.4056,5.48569,13.8913
60.0392,8.46558,5.58046,14.046
61.0957,8.51745,5.66871,14.1862
62.1521,8.56977,5.7609,14.3307
63.0324,8.61815,5.8484,14.4665
64.0888,8.66153,5.93215,14.5937
65.1452,8.70298,6.01709,14.7201
66.0256,8.74215,6.096627,14.8388
67.082,8.77936,6.17724,14.9566
68.1384,8.81422,6.25896,15.0732
69.0187,8.84391,6.33052,15.1744
70.0751,8.87448,6.405024,15.2795
71.13154,8.90521,6.48597,15.3912
72.0119,8.9271,6.55165,15.4788
73.06829,8.94962,6.61702,15.5666
74.1247,8.97453,6.69108,15.6656
75.005,8.99532,6.758731,15.7541
76.0614,9.012276,6.81918,15.8315
77.1179,9.03138,6.88601,15.9174
78.1743,9.04962,6.95459,16.0042
79.0546,9.06529,7.01685,16.0821
80.111,9.07682,7.07079,16.1476
81.1674,9.09103,7.13224,16.2233
82.0478,9.10446,7.19053,16.295
83.1042,9.11666,7.24764,16.3643
84.1606,9.12642,7.30425,16.4307
85.0409,9.13632,7.35578,16.4921
86.0973,9.14576,7.40945,16.5552
87.1537,9.15496,7.46656,16.6215
88.0341,9.161045,7.51377,16.6748
89.0905,9.16873,7.56206,16.7308
90.1469,9.17706,7.616317,16.7934
91.0272,9.18219,7.66319,16.8454
92.0837,9.18595,7.706514,16.8925
93.1401,9.19316,7.75618,16.9493
94.0204,9.1995,7.80228,17.0018
95.0768,9.2024,7.84496,17.0474
96.13322,9.20505,7.88814,17.0932
97.0136,9.21102,7.93146,17.1425
98.06997,9.21645,7.97565,17.1921
99.1264,9.21749,8.01749,17.235
100.007,9.22051,8.05574,17.2762
101.063,9.22619,8.09588,17.3221
102.12,9.22929,8.13881,17.3681
103.176,9.2307,8.178519,17.4092
104.056,9.23357,8.21558,17.4491
105.1127,9.23802,8.25351,17.4915
106.169,9.23976,8.28945,17.5292
107.049,9.24166,8.32387,17.5655
108.106,9.24461,8.358879,17.6035
109.162,9.24658,8.3957,17.6423
110.043,9.2484,8.42851,17.6769
111.099,9.25169,8.46185,17.7135
112.155,9.2517,8.49323,17.7449
113.036,9.25332,8.5233,17.7766
114.092,9.25672,8.55547,17.8122
115.149,9.25876,8.5898,17.8486
116.029,9.25978,8.61896,17.8787
117.085,9.26265,8.648,17.9106
118.142,9.26565,8.67846,17.9441
119.022,9.26641,8.705629,17.972
120.078,9.26869,8.73414,18.0028
121.1349,9.27134,8.76468,18.036
122.015,9.27361,8.79113,18.0647
123.072,9.27569,8.8154,18.0911
124.128,9.27727,8.84239,18.1197
125.0084,9.27878,8.867534,18.1463
126.065,9.28279,8.89462,18.1774
127.121,9.28437,8.91934,18.2037
128.002,9.28572,8.94082,18.2265
129.058,9.28916,8.96602,18.2552
130.114,9.29204,8.99252,18.2846
131.171,9.29409,9.01605,18.3101
132.051,9.29632,9.03754,18.3339
133.108,9.2981,9.05837,18.3565
134.164,9.30211,9.08265,18.3848
135.044,9.30407,9.10318,18.4072
136.101,9.30597,9.12412,18.4301
137.1571,9.30927,9.1466,18.4559
138.037,9.31163,9.16413,18.4758
139.094,9.31513,9.18519,18.5003
140.15,9.31739,9.20562,18.523
141.0306,9.31943,9.22398,18.5434
142.087,9.32387,9.24345,18.5673
143.143,9.32597,9.26148,18.5874
144.024,9.32954,9.2789,18.6084
145.08,9.33254,9.2968,18.6293
146.137,9.33533,9.31546,18.6508
147.017,9.339102,9.3335,18.6726
148.073,9.34115,9.34749,18.6886
149.13,9.34579,9.36501,18.7108
150.01,9.34841,9.38151,18.7299
151.066,9.35146,9.3982,18.7497
152.1229,9.35441,9.41335,18.7678
153.003,9.357941,9.4273,18.7852
154.06,9.36202,9.44435,18.8064
155.116,9.36441,9.45971,18.8241
156.172,9.368541,9.47411,18.8426
157.053,9.37234,9.48902,18.8614
158.109,9.37566,9.502359,18.878
159.166,9.37936,9.518,18.8974
160.046,9.38295,9.5308,18.9137
161.102,9.38637,9.54396,18.9303
162.159,9.38957,9.55713,18.9467
163.039,9.3935,9.57033,18.9638
164.096,9.39692,9.58276,18.9797
165.152,9.40074,9.5949,18.9956
166.032,9.40432,9.60604,19.0104
167.089,9.40806,9.61828,19.0263
168.1451,9.41173,9.6301,19.0418
169.025,9.41497,9.640258,19.0552
170.082,9.41932,9.65173,19.071
171.138,9.42354,9.66413,19.0877
172.0186,9.42714,9.67444,19.1016
173.075,9.43083,9.68439,19.1152
174.131,9.43539,9.69584,19.1312
175.012,9.43857,9.70621,19.1448
176.068,9.44259,9.71485,19.1574
177.125,9.4467,9.72618,19.1729
178.005,9.45057,9.73553,19.1861
179.061,9.45424,9.74478,19.199
180.118,9.45824,9.75447,19.2127
181.174,9.46244,9.76439,19.2268
182.054,9.46618,9.77309,19.2393
183.1109,9.47012,9.78113,19.2513
184.1673,9.47432,9.79132,19.2656
185.048,9.47813,9.79897,19.2771
186.104,9.48178,9.80723,19.289
187.16,9.48557,9.81579,19.3014
188.0408,9.48975,9.82333,19.3131
189.097,9.49375,9.831633,19.3254
190.154,9.498,9.840009,19.338
191.034,9.50212,9.8479,19.35
192.09,9.50591,9.85449,19.3604
193.147,9.51035,9.86179,19.3721
194.027,9.51477,9.86914,19.3839
195.084,9.5186,9.87573,19.3943
196.14,9.52301,9.88309,19.4061
197.02,9.52759,9.88958,19.4172
198.077,9.53142,9.8961,19.4275
199.1331,9.536,9.90343,19.4394
200.013,9.54033,9.90961,19.4499
201.07,9.54419,9.91605,19.4602
202.126,9.54858,9.9224,19.471
203.0066,9.55271,9.92849,19.4812
204.063,9.55657,9.93407,19.4906
205.119,9.56091,9.94022,19.5011
206.176,9.56532,9.94637,19.5117
207.056,9.56971,9.95232,19.522
208.113,9.57396,9.958285,19.5322
209.169,9.57882,9.96473,19.5436
210.049,9.58302,9.96943,19.5525
211.106,9.58685,9.97304,19.5599
212.162,9.59112,9.97752,19.5686
213.042,9.59516,9.98378,19.5789
214.099,9.59976,9.9916,19.5914
215.1553,9.60533,10.0017,19.607
216.036,9.61108,10.012,19.6231
217.092,9.61626,10.0188,19.635
218.148,9.6175,10.0131,19.6306
219.0288,9.62031,10.0068,19.6271
220.085,9.62646,10.0123,19.6388
221.142,9.63439,10.0246,19.659
222.022,9.63827,10.0314,19.6696
223.078,9.64154,10.0347,19.6762
224.135,9.64698,10.0408,19.6877
225.015,9.65317,10.0488,19.702
226.072,9.65642,10.0532,19.7097
227.128,9.65995,10.0557,19.7156
228.008,9.66527,10.0604,19.7257
229.065,9.6707,10.0663,19.737
230.1211,9.67436,10.0689,19.7433
231.001,9.67933,10.0726,19.7519
232.058,9.68526,10.0783,19.7636
233.114,9.68949,10.0819,19.7714
234.171,9.69491,10.0858,19.7807
235.051,9.70059,10.0912,19.7918
236.107,9.70444,10.0946,19.7991
237.164,9.71031,10.0991,19.8094
238.044,9.71571,10.1044,19.8201
239.101,9.71986,10.1077,19.8276
240.157,9.72595,10.1129,19.8388
241.037,9.7303,10.11687,19.8472
242.094,9.735145,10.1208,19.856
243.15,9.74119,10.1263,19.8675
244.03,9.74567,10.1302,19.8759
245.087,9.75147,10.1351,19.8866
246.1433,9.75629,10.1397,19.896
247.024,9.76157,10.1443,19.9059
248.08,9.76629,10.1489,19.9151
249.136,9.772,10.1539,19.9259
250.0168,9.77676,10.1587,19.9355
251.073,9.7819,10.1634,19.9452
252.13,9.78695,10.169,19.956
253.01,9.79211,10.1741,19.9662
254.066,9.79643,10.1792,19.9757
255.123,9.80168,10.1847,19.9864
256.003,9.80633,10.1904,19.9967
257.06,9.81103,10.19588,20.0069
258.116,9.815597,10.202,20.0176
259.172,9.820212,10.20812,20.0283
260.053,9.82422,10.2138,20.038
261.109,9.82792,10.2197,20.0477
262.1655,9.83201,10.2264,20.0585
263.046,9.83573,10.2332,20.0689
264.102,9.8392,10.2393,20.0785
265.159,9.84287,10.2476,20.0905
266.039,9.84612,10.2546,20.1007
267.095,9.84905,10.26191,20.111
268.152,9.85209,10.2706,20.1227
269.032,9.85455,10.2786,20.1331
270.089,9.85678,10.2869,20.1437
271.145,9.85892,10.2965,20.1554
272.025,9.86055,10.3058,20.1663
273.082,9.86179,10.3156,20.1774
274.138,9.8631,10.3257,20.1889
275.018,9.86414,10.3367,20.2009
276.075,9.86472,10.3478,20.2125
277.1313,9.86583,10.3603,20.2261
278.012,9.86698,10.3732,20.2402
279.068,9.86826,10.3857,20.254
280.124,9.87057,10.4017,20.2723
281.0048,9.87304,10.4164,20.2894
282.061,9.87637,10.4321,20.3084
283.118,9.88124,10.4498,20.3311
284.174,9.8877,10.4688,20.3565
285.054,9.89543,10.4872,20.3827
286.111,9.90606,10.5092,20.4153
287.167,9.9212,10.5349,20.4561
288.048,9.93919,10.5607,20.4999
289.104,9.96118,10.5888,20.55
290.16,9.99026,10.6204,20.6107
291.041,10.0208,10.6525,20.6733
292.097,10.0555,10.6855,20.741
293.1535,10.0991,10.72436,20.8235
294.034,10.1436,10.762,20.90559
295.09,10.1914,10.7985,20.9898
296.147,10.2504,10.8461,21.0965
297.027,10.3091,10.8911,21.2002
298.083,10.3715,10.9366,21.308
299.14,10.4425,10.988,21.4305
300.02,10.5143,11.0426,21.5569
301.077,10.5902,11.099,21.6892
302.133,10.6777,11.1634,21.8411
303.013,10.7616,11.2307,21.9923
304.07,10.8517,11.2966,22.1483
305.126,10.9554,11.3767,22.332
306.006,11.05649,11.4559,22.51241
307.063,11.1649,11.5415,22.7064
308.1193,11.2929,11.64323,22.9361
309.1757,11.4314,11.75487,23.1863
310.056,11.5679,11.8675,23.4354
311.112,11.7134,11.9898,23.7032
312.169,11.8588,12.0912,23.95
313.0492,11.9743,12.1779,24.1522
314.106,12.09719,12.2844,24.3816
315.162,12.2341,12.4153,24.6494
316.042,12.3527,12.5271,24.8798
317.099,12.476,12.6581,25.1341
318.155,12.5999,12.7904,25.3903
319.036,12.7076,12.9085,25.6162
320.092,12.8127,13.0364,25.849
321.148,12.9148,13.1628,26.0776
322.029,13.0026,13.278,26.2806
323.085,13.0818,13.3948,26.4766
324.1415,13.1592,13.5138,26.67299
325.022,13.2223,13.6194,26.84166
326.078,13.2765,13.7273,27.0037
327.135,13.3262,13.83433,27.1605
328.015,13.3636,13.928,27.2917
329.071,13.3929,14.0248,27.4177
330.128,13.4162,14.1218,27.538
331.008,13.4302,14.2048,27.635
332.065,13.4391,14.2938,27.7328
333.121,13.4367,14.379,27.8157
334.001,13.4309,14.4571,27.8879
335.058,13.4198,14.5399,27.9597
336.114,13.3975,14.618,28.0155
337.171,13.3684,14.6943,28.0627
338.051,13.3406,14.771,28.1116
339.107,13.3011,14.83971,28.1408
340.1637,13.2544,14.9116,28.1661
341.044,13.2105,14.983,28.1935
342.1,13.1578,15.0538,28.2115
343.157,13.0941,15.12372,28.2178
344.0372,13.0326,15.1862,28.2187
345.094,12.9686,15.2611,28.2297
346.15,12.8876,15.3293,28.2169
347.03,12.81206,15.39277,28.20483
348.087,12.7345,15.4665,28.201
349.143,12.641,15.5384,28.17937
350.024,12.54877,15.5958,28.1446
351.08,12.4606,15.6765,28.1371
352.136,12.3517,15.7481,28.0997
353.017,12.2453,15.8091,28.0544
354.073,12.1411,15.881,28.0221
355.1295,12.0184,15.96,27.9784
356.01,11.8987,16.0226,27.9212
357.066,11.7804,16.0953,27.8757
358.123,11.6442,16.1766,27.8208
359.003,11.5103,16.2446,27.7549
360.0594,11.3728,16.3051,27.6779
361.116,11.2233,16.3971,27.6204
362.172,11.0628,16.47097,27.5338
363.053,10.9071,16.5263,27.4334
364.109,10.7589,16.6181,27.377
365.165,10.57825,16.6857,27.264
366.046,10.4079,16.7409,27.1487
367.102,10.2473,16.8387,27.086
368.159,10.0496,16.9051,26.95471
369.039,9.86398,16.956,26.8199
370.095,9.68797,17.0533,26.7412
371.1517,9.47309,17.11374,26.5868
372.032,9.27089,17.1581,26.429
373.088,9.07771,17.2498,26.3275
374.145,8.84517,17.3006,26.1458
375.0252,8.63403,17.352,25.9861
376.082,8.4244,17.4333,25.8577
377.138,8.17465,17.4723,25.647
378.018,7.94756,17.51045,25.458
379.075,7.72115,17.5772,25.2984
380.131,7.4425,17.5515,24.994
381.012,7.22517,17.6616,24.8868
382.068,6.96734,17.6501,24.6174
383.124,6.68823,17.6393,24.3275
384.005,6.45017,17.70982,24.16
385.061,6.15602,17.571,23.7271
386.117,5.89362,17.6434,23.537
387.1739,5.58237,17.5255,23.1078
388.054,5.29692,17.3993,22.6962
389.111,5.02566,17.33335,22.359
390.167,4.69039,17.0446,21.7349
391.0474,4.43039,16.9844,21.4148
392.104,4.08699,16.4471,20.5341
393.16,3.79552,16.216,20.0115
394.041,3.42177,15.26701,18.6888
395.097,3.11648,14.4924,17.6089
396.153,2.66325,12.389,15.0522
397.034,2.18497,9.19196,11.3769
398.09,1.37991,3.352417,4.73232
399.147,0.20777,0.0394934,0.247263
400.027,7.9193e-06,0.0,7.9193e-06
401.083,0.0,0.0,0.0
402.1397,0.0,0.0,0.0
403.02,0.0,0.0,0.0
404.076,0.0,0.0,0.0
405.133,0.0,0.0,0.0
406.0132,0.0,0.0,0.0
407.07,0.0,0.0,0.0
408.126,0.0,0.0,0.0
409.006,0.0,0.0,0.0
410.063,0.0,0.0,0.0
411.119,0.0,0.0,0.0
412.176,0.0,0.0,0.0
413.056,0.0,0.0,0.0
414.112,0.0,0.0,0.0
415.169,0.0,0.0,0.0
416.049,0.0,0.0,0.0
417.105,0.0,0.0,0.0
418.1619,0.0,0.0,0.0
419.042,0.0,0.0,0.0
420.099,0.0,0.0,0.0
421.155,0.0,0.0,0.0
422.0354,0.0,0.0,0.0
423.092,0.0,0.0,0.0
424.148,0.0,0.0,0.0
425.029,0.0,0.0,0.0
426.085,0.0,0.0,0.0
427.141,0.0,0.0,0.0
428.022,0.0,0.0,0.0
429.078,0.0,0.0,0.0
430.135,0.0,0.0,0.0
431.015,0.0,0.0,0.0
432.071,0.0,0.0,0.0
433.128,0.0,0.0,0.0
434.008,0.0,0.0,0.0
435.064,0.0,0.0,0.0
436.121,0.0,0.0,0.0
437.001,0.0,0.0,0.0
438.0576,0.0,0.0,0.0
439.114,0.0,0.0,0.0
440.17,0.0,0.0,0.0
441.051,0.0,0.0,0.0
442.107,0.0,0.0,0.0
443.164,0.0,0.0,0.0
444.044,0.0,0.0,0.0
445.1,0.0,0.0,0.0
446.157,0.0,0.0,0.0
447.037,0.0,0.0,0.0
448.093,0.0,0.0,0.0
449.1499,0.0,0.0,0.0
450.03,0.0,0.0,0.0
451.087,0.0,0.0,0.0
452.143,0.0,0.0,0.0
453.0234,0.0,0.0,0.0
454.08,0.0,0.0,0.0
455.136,0.0,0.0,0.0
456.017,0.0,0.0,0.0
457.073,0.0,0.0,0.0
458.129,0.0,0.0,0.0
459.01,0.0,0.0,0.0
460.066,0.0,0.0,0.0
461.123,0.0,0.0,0.0
462.003,0.0,0.0,0.0
463.059,0.0,0.0,0.0
464.116,0.0,0.0,0.0
465.1721,0.0,0.0,0.0
466.052,0.0,0.0,0.0
467.109,0.0,0.0,0.0
468.165,0.0,0.0,0.0
469.0456,0.0,0.0,0.0
470.102,0.0,0.0,0.0
471.158,0.0,0.0,0.0
472.039,0.0,0.0,0.0
473.095,0.0,0.0,0.0
474.152,0.0,0.0,0.0
475.032,0.0,0.0,0.0
476.088,0.0,0.0,0.0
477.145,0.0,0.0,0.0
478.025,0.0,0.0,0.0
479.081,0.0,0.0,0.0
480.1379,0.0,0.0,0.0
481.018,0.0,0.0,0.0
482.075,0.0,0.0,0.0
483.131,0.0,0.0,0.0
484.0114,0.0,0.0,0.0
485.0678,0.0,0.0,0.0
486.124,0.0,0.0,0.0
487.005,0.0,0.0,0.0
488.061,0.0,0.0,0.0
489.117,0.0,0.0,0.0
490.174,0.0,0.0,0.0
491.054,0.0,0.0,0.0
492.111,0.0,0.0,0.0
493.167,0.0,0.0,0.0
494.047,0.0,0.0,0.0
495.104,0.0,0.0,0.0
496.1601,0.0,0.0,0.0
497.04,0.0,0.0,0.0
498.097,0.0,0.0,0.0
499.153,0.0,0.0,0.0
500.0,0.0,0.0,0.0