File: PMMA/Validation_Results/BUW-FZJ/BUW-FZJ_ApproachA_Gasification_q50_Temp_R2.csv
Time,T_back_1
[s],[K]
0.0,291.2
1.056409,291.2
2.112818,291.2
3.16923,291.2
4.04957,291.2
5.10598,291.2
6.16239,291.2
7.04273,291.2
8.09914,291.2
9.15554,291.2
10.0359,291.2
11.0923,291.2
12.1487,291.2
13.029,291.2
14.0855,291.2
15.1419,291.201
16.0222,291.202
17.0786,291.203
18.135,291.206
19.0154,291.209
20.0718,291.215
21.12818,291.224
22.0085,291.235
23.06493,291.25
24.1213,291.272
25.00168,291.297
26.0581,291.329
27.1145,291.371
28.1709,291.423
29.0512,291.48
30.1077,291.547
31.1641,291.632
32.0444,291.721
33.1008,291.822
34.1572,291.948
35.0376,292.077
36.094,292.22
37.1504,292.393
38.0307,292.568
39.0871,292.758
40.1435,292.984
41.0239,293.209
42.0803,293.451
43.1367,293.734
44.017,294.011
45.0735,294.307
46.12986,294.65
47.0102,294.982
48.06661,295.334
49.123,295.737
50.00336,296.126
51.0598,296.533
52.1162,296.997
53.1726,297.483
54.0529,297.946
55.1093,298.428
56.1657,298.974
57.0461,299.492
58.1025,300.027
59.1589,300.63
60.0392,301.201
61.0957,301.788
62.1521,302.447
63.0324,303.067
64.0888,303.704
65.1452,304.415
66.0256,305.084
67.082,305.767
68.1384,306.529
69.0187,307.242
70.0751,307.969
71.13154,308.778
72.0119,309.533
73.06829,310.301
74.1247,311.154
75.005,311.948
76.0614,312.755
77.1179,313.648
78.1743,314.556
79.0546,315.399
80.111,316.253
81.1674,317.198
82.0478,318.074
83.1042,318.961
84.1606,319.939
85.0409,320.846
86.0973,321.763
87.1537,322.773
88.0341,323.709
89.0905,324.653
90.1469,325.693
91.0272,326.655
92.0837,327.625
93.1401,328.693
94.0204,329.679
95.0768,330.673
96.13322,331.766
97.0136,332.776
98.06997,333.792
99.1264,334.909
100.007,335.94
101.063,336.978
102.12,338.117
103.176,339.264
104.056,340.323
105.1127,341.387
106.169,342.555
107.049,343.632
108.106,344.714
109.162,345.902
110.043,346.996
111.099,348.097
112.155,349.303
113.036,350.414
114.092,351.531
115.149,352.755
116.029,353.882
117.085,355.015
118.142,356.256
119.022,357.399
120.078,358.546
121.1349,359.804
122.015,360.962
123.072,362.125
124.128,363.398
125.0084,364.57
126.065,365.747
127.121,367.036
128.002,368.222
129.058,369.413
130.114,370.717
131.171,372.027
132.051,373.2317
133.108,374.441
134.164,375.765
135.044,376.983
136.101,378.206
137.1571,379.545
138.037,380.776
139.094,382.0118
140.15,383.3646
141.0306,384.609
142.087,385.857
143.143,387.224
144.024,388.4814
145.08,389.743
146.137,391.123
147.017,392.393
148.073,393.667
149.13,395.062
150.01,396.345
151.066,397.631
152.1229,399.04
153.003,400.335
154.06,401.635
155.116,403.056
156.172,404.483
157.053,405.795
158.109,407.112
159.166,408.552
160.046,409.877
161.102,411.205
162.159,412.66
163.039,413.997
164.096,415.338
165.152,416.806
166.032,418.156
167.089,419.51
168.1451,420.992
169.025,422.354
170.082,423.7209
171.138,425.216
172.0186,426.591
173.075,427.971
174.131,429.48
175.012,430.868
176.068,432.26
177.125,433.783
178.005,435.184
179.061,436.5884
180.118,438.126
181.174,439.668
182.054,441.086
183.1109,442.509
184.1673,444.066
185.048,445.497
186.104,446.932
187.16,448.503
188.0408,449.948
189.097,451.396
190.154,452.982
191.034,454.44
192.09,455.902
193.147,457.502
194.027,458.973
195.084,460.449
196.14,462.065
197.02,463.55
198.077,465.04
199.1331,466.67
200.013,468.17
201.07,469.6749
202.126,471.322
203.0066,472.835
204.063,474.354
205.119,476.017
206.176,477.685
207.056,479.2196
208.113,480.759
209.169,482.445
210.049,483.995
211.106,485.551
212.162,487.254
213.042,488.821
214.099,490.393
215.1553,492.114
216.036,493.699
217.092,495.289
218.148,497.029
219.0288,498.63
220.085,500.238
221.142,501.9983
222.022,503.618
223.078,505.245
224.135,507.026
225.015,508.666
226.072,510.312
227.128,512.116
228.008,513.775
229.065,515.442
230.1211,517.269
231.001,518.95
232.058,520.637
233.114,522.486
234.171,524.343
235.051,526.054
236.107,527.77
237.164,529.651
238.044,531.383
239.101,533.121
240.157,535.026
241.037,536.779
242.094,538.536
243.15,540.462
244.03,542.233
245.087,544.009
246.1433,545.953
247.024,547.741
248.08,549.533
249.136,551.494
250.0168,553.296
251.073,555.103
252.13,557.079
253.01,558.896
254.066,560.715
255.123,562.7
256.003,564.522
257.06,566.345
258.116,568.3368
259.172,570.33
260.053,572.158
261.109,573.987
262.1655,575.982
263.046,577.81
264.102,579.637
265.159,581.63
266.039,583.455
267.095,585.278
268.152,587.265
269.032,589.084
270.089,590.898
271.145,592.87
272.025,594.674
273.082,596.474
274.138,598.434
275.018,600.226
276.075,602.014
277.1313,603.961
278.012,605.743
279.068,607.522
280.124,609.4593
281.0048,611.234
282.061,613.008
283.118,614.942
284.174,616.877
285.054,618.652
286.111,620.43
287.167,622.375
288.048,624.163
289.104,625.956
290.16,627.922
291.041,629.734
292.097,631.558
293.1535,633.565
294.034,635.42
295.09,637.298
296.147,639.369
297.027,641.292
298.083,643.241
299.14,645.406
300.02,647.421
301.077,649.468
302.133,651.758
303.013,653.904
304.07,656.1
305.126,658.54
306.006,660.845
307.063,663.243
308.1193,665.94
309.1757,668.713
310.056,671.321
311.112,674.027
312.169,677.192
313.0492,680.152
314.106,683.376
315.162,687.13
316.042,690.701
317.099,694.758
318.155,699.282
319.036,704.089
320.092,709.476
321.148,716.449
322.029,723.225
323.085,733.412
324.1415,747.006
325.022,765.2664
326.078,786.556
327.135,796.994
328.015,799.916
329.071,804.055
330.128,808.233
331.008,811.654
332.065,814.689
333.121,817.66
334.001,820.123
335.058,822.37
336.114,824.622
337.171,826.696
338.051,828.463
339.107,830.106
340.1637,831.787
341.044,833.24
342.1,834.617
343.157,836.035
344.0372,837.269
345.094,838.441
346.15,839.659
347.03,840.727
348.087,841.748
349.143,842.8145
350.024,843.755
351.08,844.655
352.136,845.603
353.017,846.439
354.073,847.248
355.1295,848.1
356.01,848.858
357.066,849.593
358.123,850.37
359.003,851.0612
360.0594,851.733
361.116,852.443
362.172,853.13
363.053,853.745
364.109,854.342
365.165,854.9761
366.046,855.541
367.102,856.094
368.159,856.681
369.039,857.207
370.095,857.72
371.1517,858.264
372.032,858.753
373.088,859.233
374.145,859.742
375.0252,860.1987
376.082,860.646
377.138,861.123
378.018,861.552
379.075,861.972
380.131,862.421
381.012,862.824
382.068,863.219
383.124,863.644
384.005,864.024
385.061,864.399
386.117,864.7977
387.1739,865.191
388.054,865.544
389.111,865.89
390.167,866.264
391.0474,866.598
392.104,866.928
393.16,867.281
394.041,867.6
395.097,867.913
396.153,868.2515
397.034,868.554
398.09,868.853
399.147,869.175
400.027,869.465
401.083,869.753
402.1397,870.062
403.02,870.342
404.076,870.6174
405.133,870.915
406.0132,871.182
407.07,871.446
408.126,871.731
409.006,871.987
410.063,872.24
411.119,872.514
412.176,872.781
413.056,873.022
414.112,873.264
415.169,873.521
416.049,873.752
417.105,873.984
418.1619,874.231
419.042,874.455
420.099,874.677
421.155,874.914
422.0354,875.131
423.092,875.344
424.148,875.572
425.029,875.78
426.085,875.987
427.141,876.207
428.022,876.407
429.078,876.605
430.135,876.82
431.015,877.011
432.071,877.203
433.128,877.41
434.008,877.596
435.064,877.779
436.121,877.979
437.001,878.16
438.0576,878.338
439.114,878.53
440.17,878.72
441.051,878.895
442.107,879.065
443.164,879.249
444.044,879.417
445.1,879.583
446.157,879.7612
447.037,879.925
448.093,880.086
449.1499,880.258
450.03,880.416
451.087,880.572
452.143,880.741
453.0234,880.895
454.08,881.047
455.136,881.207
456.017,881.357
457.073,881.505
458.129,881.666
459.01,881.81
460.066,881.9507
461.123,882.106
462.003,882.247
463.059,882.387
464.116,882.537
465.1721,882.686
466.052,882.821
467.109,882.954
468.165,883.101
469.0456,883.233
470.102,883.363
471.158,883.505
472.039,883.633
473.095,883.761
474.152,883.897
475.032,884.021
476.088,884.146
477.145,884.282
478.025,884.402
479.081,884.523
480.1379,884.6525
481.018,884.771
482.075,884.889
483.131,885.017
484.0114,885.134
485.0678,885.2477
486.124,885.371
487.005,885.484
488.061,885.5964
489.117,885.718
490.174,885.839
491.054,885.9484
492.111,886.0543
493.167,886.172
494.047,886.28
495.104,886.387
496.1601,886.501
497.04,886.605
498.097,886.708
499.153,886.82
500.0,886.92