File: PMMA/Validation_Results/BUW-FZJ/BUW-FZJ_ApproachB_Gasification_q50_Mass_R4.csv
Time,Mass
[s],[g]
0.0,25.5512
1.056409,25.5512
2.112818,25.5512
3.16923,25.5512
4.04957,25.5512
5.10598,25.5512
6.16239,25.5512
7.04273,25.5512
8.09914,25.5512
9.15554,25.5512
10.0359,25.5512
11.0923,25.5512
12.1487,25.5512
13.029,25.5512
14.0855,25.55115
15.1419,25.5511
16.0222,25.551
17.0786,25.5509
18.135,25.5507
19.0154,25.5505
20.0718,25.55
21.12818,25.5493
22.0085,25.5484
23.06493,25.5471
24.1213,25.54506
25.00168,25.5426
26.0581,25.5393
27.1145,25.5347
28.1709,25.5288
29.0512,25.5221
30.1077,25.5138
31.1641,25.503
32.0444,25.4914
33.1008,25.4779
34.1572,25.4611
35.0376,25.4438
36.094,25.4245
37.1504,25.4014
38.0307,25.3784
39.0871,25.3535
40.1435,25.3246
41.0239,25.2963
42.0803,25.2665
43.1367,25.2324
44.017,25.1996
45.0735,25.1655
46.12986,25.127
47.0102,25.0904
48.06661,25.0527
49.123,25.0104
50.00336,24.9706
51.0598,24.9298
52.1162,24.8843
53.1726,24.8377
54.0529,24.7943
55.1093,24.75
56.1657,24.7008
57.0461,24.655
58.1025,24.6086
59.1589,24.5571
60.0392,24.5094
61.0957,24.461
62.1521,24.4075
63.0324,24.358
64.0888,24.3079
65.1452,24.2527
66.0256,24.2016
67.082,24.1501
68.1384,24.0933
69.0187,24.0408
70.0751,23.9879
71.13154,23.9297
72.0119,23.876
73.06829,23.8219
74.1247,23.7625
75.005,23.7076
76.0614,23.6524
77.1179,23.5918
78.1743,23.5309
79.0546,23.4746
80.111,23.4181
81.1674,23.3562
82.0478,23.299
83.1042,23.2416
84.1606,23.1787
85.0409,23.1208
86.0973,23.0626
87.1537,22.9988
88.0341,22.9401
89.0905,22.8812
90.1469,22.8166
91.0272,22.7572
92.0837,22.69755
93.1401,22.6322
94.0204,22.5722
95.0768,22.5118
96.13322,22.4458
97.0136,22.3851
98.06997,22.3242
99.1264,22.2575
100.007,22.1962
101.063,22.1347
102.12,22.0674
103.176,21.9998
104.056,21.9377
105.1127,21.8755
106.169,21.8073
107.049,21.7447
108.106,21.6818
109.162,21.6131
110.043,21.5499
111.099,21.4865
112.155,21.4172
113.036,21.3535
114.092,21.2896
115.149,21.2197
116.029,21.1555
117.085,21.091
118.142,21.0206
119.022,20.9558
120.078,20.8908
121.1349,20.8198
122.015,20.7545
123.072,20.689
124.128,20.6173
125.0084,20.5514
126.065,20.4854
127.121,20.41313
128.002,20.3467
129.058,20.2801
130.114,20.2073
131.171,20.1342
132.051,20.067
133.108,19.9997
134.164,19.926
135.044,19.8583
136.101,19.7904
137.1571,19.7161
138.037,19.6478
139.094,19.5793
140.15,19.5044
141.0306,19.4355
142.087,19.3664
143.143,19.2909
144.024,19.2214
145.08,19.1517
146.137,19.0755
147.017,19.0055
148.073,18.9352
149.13,18.8584
150.01,18.7877
151.066,18.7169
152.1229,18.6394
153.003,18.5681
154.06,18.4967
155.116,18.4185
156.172,18.3401
157.053,18.268
158.109,18.1958
159.166,18.1167
160.046,18.044
161.102,17.9711
162.159,17.8913
163.039,17.818
164.096,17.7444
165.152,17.664
166.032,17.59
167.089,17.5159
168.1451,17.4347
169.025,17.3601
170.082,17.2853
171.138,17.2034
172.0186,17.1281
173.075,17.0526
174.131,16.97
175.012,16.8941
176.068,16.8179
177.125,16.7345
178.005,16.6579
179.061,16.581
180.118,16.4969
181.174,16.4125
182.054,16.3349
183.1109,16.2571
184.1673,16.1719
185.048,16.0936
186.104,16.015
187.16,15.9291
188.0408,15.85
189.097,15.7707
190.154,15.6839
191.034,15.6041
192.09,15.5241
193.147,15.4365
194.027,15.3559
195.084,15.2751
196.14,15.1866
197.02,15.1052
198.077,15.0236
199.1331,14.9342
200.013,14.852
201.07,14.7696
202.126,14.6793
203.0066,14.5963
204.063,14.513
205.119,14.4218
206.176,14.3303
207.056,14.2461
208.113,14.1616
209.169,14.0691
210.049,13.9841
211.106,13.8987
212.162,13.8052
213.042,13.7192
214.099,13.633
215.1553,13.5385
216.036,13.4515
217.092,13.3643
218.148,13.2687
219.0288,13.1808
220.085,13.0925
221.142,12.9959
222.022,12.907
223.078,12.8177
224.135,12.7199
225.015,12.63
226.072,12.5396
227.128,12.4407
228.008,12.3496
229.065,12.2582
230.1211,12.1581
231.001,12.066
232.058,11.9734
233.114,11.8721
234.171,11.7702
235.051,11.6765
236.107,11.5824
237.164,11.4792
238.044,11.3843
239.101,11.2889
240.157,11.1844
241.037,11.0882
242.094,10.9915
243.15,10.8856
244.03,10.7881
245.087,10.6902
246.1433,10.5828
247.024,10.484
248.08,10.3847
249.136,10.2758
250.0168,10.1756
251.073,10.0749
252.13,9.96451
253.01,9.862857
254.066,9.76072
255.123,9.64877
256.003,9.54566
257.06,9.442058
258.116,9.3285
259.172,9.21437
260.053,9.10926
261.109,9.00364
262.1655,8.88788
263.046,8.78127
264.102,8.67415
265.159,8.55675
266.039,8.44864
267.095,8.340021
268.152,8.220994
269.032,8.111391
270.089,8.0013
271.145,7.88067
272.025,7.76961
273.082,7.65808
274.138,7.5359
275.018,7.423439
276.075,7.31052
277.1313,7.18684
278.012,7.07304
279.068,6.95879
280.124,6.833703
281.0048,6.71862
282.061,6.60314
283.118,6.47672
284.174,6.34986
285.054,6.233197
286.111,6.11617
287.167,5.988099
288.048,5.870362
289.104,5.75229
290.16,5.62312
291.041,5.504407
292.097,5.38538
293.1535,5.25521
294.034,5.13559
295.09,5.0157
296.147,4.88461
297.027,4.764173
298.083,4.64348
299.14,4.51156
300.02,4.39038
301.077,4.26898
302.133,4.13629
303.013,4.01445
304.07,3.8924
305.126,3.75903
306.006,3.63659
307.063,3.51398
308.1193,3.38003
309.1757,3.24591
310.056,3.12282
311.112,2.99959
312.169,2.86505
313.0492,2.74161
314.106,2.61809
315.162,2.48328
316.042,2.35966
317.099,2.23603
318.155,2.10119
319.036,1.97764
320.092,1.85421
321.148,1.71972
322.029,1.59665
323.085,1.4739
324.1415,1.34041
325.022,1.21853
326.078,1.09733
327.135,0.966051
328.015,0.846775
329.071,0.728956
330.128,0.60252
331.008,0.489258
332.065,0.37961
333.121,0.265675
334.001,0.169066
335.058,0.085719
336.114,0.021626
337.171,0.000673
338.051,0.0
339.107,0.0
340.1637,0.0
341.044,0.0
342.1,0.0
343.157,0.0
344.0372,0.0
345.094,0.0
346.15,0.0
347.03,0.0
348.087,0.0
349.143,0.0
350.024,0.0
351.08,0.0
352.136,0.0
353.017,0.0
354.073,0.0
355.1295,0.0
356.01,0.0
357.066,0.0
358.123,0.0
359.003,0.0
360.0594,0.0
361.116,0.0
362.172,0.0
363.053,0.0
364.109,0.0
365.165,0.0
366.046,0.0
367.102,0.0
368.159,0.0
369.039,0.0
370.095,0.0
371.1517,0.0
372.032,0.0
373.088,0.0
374.145,0.0
375.0252,0.0
376.082,0.0
377.138,0.0
378.018,0.0
379.075,0.0
380.131,0.0
381.012,0.0
382.068,0.0
383.124,0.0
384.005,0.0
385.061,0.0
386.117,0.0
387.1739,0.0
388.054,0.0
389.111,0.0
390.167,0.0
391.0474,0.0
392.104,0.0
393.16,0.0
394.041,0.0
395.097,0.0
396.153,0.0
397.034,0.0
398.09,0.0
399.147,0.0
400.027,0.0
401.083,0.0
402.1397,0.0
403.02,0.0
404.076,0.0
405.133,0.0
406.0132,0.0
407.07,0.0
408.126,0.0
409.006,0.0
410.063,0.0
411.119,0.0
412.176,0.0
413.056,0.0
414.112,0.0
415.169,0.0
416.049,0.0
417.105,0.0
418.1619,0.0
419.042,0.0
420.099,0.0
421.155,0.0
422.0354,0.0
423.092,0.0
424.148,0.0
425.029,0.0
426.085,0.0
427.141,0.0
428.022,0.0
429.078,0.0
430.135,0.0
431.015,0.0
432.071,0.0
433.128,0.0
434.008,0.0
435.064,0.0
436.121,0.0
437.001,0.0
438.0576,0.0
439.114,0.0
440.17,0.0
441.051,0.0
442.107,0.0
443.164,0.0
444.044,0.0
445.1,0.0
446.157,0.0
447.037,0.0
448.093,0.0
449.1499,0.0
450.03,0.0
451.087,0.0
452.143,0.0
453.0234,0.0
454.08,0.0
455.136,0.0
456.017,0.0
457.073,0.0
458.129,0.0
459.01,0.0
460.066,0.0
461.123,0.0
462.003,0.0
463.059,0.0
464.116,0.0
465.1721,0.0
466.052,0.0
467.109,0.0
468.165,0.0
469.0456,0.0
470.102,0.0
471.158,0.0
472.039,0.0
473.095,0.0
474.152,0.0
475.032,0.0
476.088,0.0
477.145,0.0
478.025,0.0
479.081,0.0
480.1379,0.0
481.018,0.0
482.075,0.0
483.131,0.0
484.0114,0.0
485.0678,0.0
486.124,0.0
487.005,0.0
488.061,0.0
489.117,0.0
490.174,0.0
491.054,0.0
492.111,0.0
493.167,0.0
494.047,0.0
495.104,0.0
496.1601,0.0
497.04,0.0
498.097,0.0
499.153,0.0
500.0,0.0