File: PMMA/Validation_Results/BUW-FZJ/BUW-FZJ_ApproachB_Gasification_q50_Mass_R3.csv
Time,Mass
[s],[g]
0.0,26.6818
1.056409,26.6818
2.112818,26.6818
3.16923,26.6818
4.04957,26.6818
5.10598,26.6818
6.16239,26.6818
7.04273,26.6818
8.09914,26.6818
9.15554,26.6818
10.0359,26.6818
11.0923,26.6818
12.1487,26.6818
13.029,26.6818
14.0855,26.6817
15.1419,26.6817
16.0222,26.6816
17.0786,26.6815
18.135,26.6813
19.0154,26.681
20.0718,26.6806
21.12818,26.6799
22.0085,26.679
23.06493,26.6776
24.1213,26.6756
25.00168,26.6732
26.0581,26.6699
27.1145,26.6653
28.1709,26.6594
29.0512,26.6526
30.1077,26.6444
31.1641,26.6336
32.0444,26.622
33.1008,26.6085
34.1572,26.5917
35.0376,26.57438
36.094,26.5551
37.1504,26.532
38.0307,26.509
39.0871,26.4841
40.1435,26.4551
41.0239,26.4269
42.0803,26.3971
43.1367,26.3629
44.017,26.3302
45.0735,26.2961
46.12986,26.2576
47.0102,26.221
48.06661,26.1833
49.123,26.141
50.00336,26.1012
51.0598,26.0604
52.1162,26.0149
53.1726,25.9683
54.0529,25.9248
55.1093,25.8806
56.1657,25.8314
57.0461,25.7856
58.1025,25.7392
59.1589,25.6877
60.0392,25.64
61.0957,25.5916
62.1521,25.5382
63.0324,25.4886
64.0888,25.4386
65.1452,25.3834
66.0256,25.3323
67.082,25.2808
68.1384,25.224
69.0187,25.1715
70.0751,25.1187
71.13154,25.0605
72.0119,25.0068
73.06829,24.9527
74.1247,24.8933
75.005,24.8385
76.0614,24.7833
77.1179,24.7228
78.1743,24.6619
79.0546,24.6057
80.111,24.5493
81.1674,24.4873
82.0478,24.4303
83.1042,24.373
84.1606,24.3101
85.0409,24.2523
86.0973,24.1942
87.1537,24.13051
88.0341,24.0719
89.0905,24.0131
90.1469,23.9486
91.0272,23.8893
92.0837,23.8298
93.1401,23.7647
94.0204,23.7047
95.0768,23.6446
96.13322,23.5788
97.0136,23.5182
98.06997,23.4575
99.1264,23.391
100.007,23.3299
101.063,23.2686
102.12,23.2016
103.176,23.1343
104.056,23.0725
105.1127,23.0104
106.169,22.9426
107.049,22.8803
108.106,22.8177
109.162,22.7494
110.043,22.6865
111.099,22.6235
112.155,22.5546
113.036,22.4913
114.092,22.4278
115.149,22.3583
116.029,22.2945
117.085,22.2305
118.142,22.1606
119.022,22.0963
120.078,22.0318
121.1349,21.9613
122.015,21.8966
123.072,21.8316
124.128,21.7606
125.0084,21.6954
126.065,21.63
127.121,21.5584
128.002,21.49265
129.058,21.4267
130.114,21.3546
131.171,21.2824
132.051,21.2159
133.108,21.1494
134.164,21.0765
135.044,21.0096
136.101,20.9426
137.1571,20.8692
138.037,20.8018
139.094,20.7342
140.15,20.6603
141.0306,20.5923
142.087,20.5242
143.143,20.4497
144.024,20.3813
145.08,20.3127
146.137,20.2377
147.017,20.1687
148.073,20.0996
149.13,20.024
150.01,19.9545
151.066,19.8848
152.1229,19.8086
153.003,19.7386
154.06,19.6685
155.116,19.5917
156.172,19.5148
157.053,19.44404
158.109,19.3731
159.166,19.2956
160.046,19.2243
161.102,19.1529
162.159,19.0748
163.039,19.003
164.096,18.931
165.152,18.8523
166.032,18.7799
167.089,18.7074
168.1451,18.628
169.025,18.5551
170.082,18.482
171.138,18.4021
172.0186,18.3286
173.075,18.25493
174.131,18.1744
175.012,18.1003
176.068,18.026
177.125,17.9448
178.005,17.87019
179.061,17.7953
180.118,17.7135
181.174,17.6314
182.054,17.5559
183.1109,17.4802
184.1673,17.3975
185.048,17.3214
186.104,17.2451
187.16,17.1617
188.0408,17.0849
189.097,17.008
190.154,16.9239
191.034,16.8465
192.09,16.769
193.147,16.6841
194.027,16.6061
195.084,16.5279
196.14,16.4424
197.02,16.3637
198.077,16.2848
199.1331,16.1985
200.013,16.1191
201.07,16.0395
202.126,15.9524
203.0066,15.8724
204.063,15.792
205.119,15.7042
206.176,15.616
207.056,15.535
208.113,15.4537
209.169,15.3647
210.049,15.2829
211.106,15.2009
212.162,15.1111
213.042,15.0286
214.099,14.9457
215.1553,14.8551
216.036,14.7718
217.092,14.6882
218.148,14.5967
219.0288,14.5125
220.085,14.4281
221.142,14.3356
222.022,14.2506
223.078,14.1654
224.135,14.072
225.015,13.9861
226.072,13.9
227.128,13.8057
228.008,13.7189
229.065,13.6319
230.1211,13.5366
231.001,13.4489
232.058,13.3609
233.114,13.2646
234.171,13.168
235.051,13.079
236.107,12.9897
237.164,12.892
238.044,12.802
239.101,12.7117
240.157,12.6128
241.037,12.5219
242.094,12.4305
243.15,12.3305
244.03,12.2384
245.087,12.146
246.1433,12.0448
247.024,11.9516
248.08,11.8581
249.136,11.75566
250.0168,11.6614
251.073,11.5667
252.13,11.463
253.01,11.3675
254.066,11.2716
255.123,11.1665
256.003,11.0698
257.06,10.9727
258.116,10.8662
259.172,10.7593
260.053,10.6609
261.109,10.562
262.1655,10.4536
263.046,10.3538
264.102,10.2536
265.159,10.1437
266.039,10.0426
267.095,9.940969
268.152,9.82961
269.032,9.727053
270.089,9.62402
271.145,9.51111
272.025,9.40712
273.082,9.30266
274.138,9.18816
275.018,9.08273
276.075,8.9768
277.1313,8.86072
278.012,8.75382
279.068,8.64643
280.124,8.52875
281.0048,8.42038
282.061,8.31154
283.118,8.19227
284.174,8.07245
285.054,7.96214
286.111,7.85136
287.167,7.73
288.048,7.61829
289.104,7.50613
290.16,7.38328
291.041,7.27023
292.097,7.15675
293.1535,7.03248
294.034,6.91815
295.09,6.80342
296.147,6.67781
297.027,6.56228
298.083,6.44636
299.14,6.3195
300.02,6.20285
301.077,6.08585
302.133,5.95783
303.013,5.84015
304.07,5.72214
305.126,5.59305
306.006,5.47442
307.063,5.35548
308.1193,5.22542
309.1757,5.09504
310.056,4.97525
311.112,4.85519
312.169,4.72394
313.0492,4.60338
314.106,4.48259
315.162,4.350554
316.042,4.2293
317.099,4.10783
318.155,3.97509
319.036,3.85322
320.092,3.73115
321.148,3.59779
322.029,3.47537
323.085,3.35279
324.1415,3.21891
325.022,3.09605
326.078,2.97306
327.135,2.83878
328.015,2.71559
329.071,2.59233
330.128,2.45781
331.008,2.33447
332.065,2.21113
333.121,2.07661
334.001,1.95338
335.058,1.83026
336.114,1.69614
337.171,1.56229
338.051,1.43994
339.107,1.31801
340.1637,1.18558
341.044,1.06492
342.1,0.945154
343.157,0.815762
344.0372,0.698712
345.094,0.583702
346.15,0.461347
347.03,0.353082
348.087,0.250403
349.143,0.148062
350.024,0.068694
351.08,0.016085
352.136,0.00022
353.017,3.46945e-15
354.073,3.46945e-15
355.1295,3.46945e-15
356.01,3.46945e-15
357.066,3.46945e-15
358.123,3.46945e-15
359.003,3.46945e-15
360.0594,3.46945e-15
361.116,3.46945e-15
362.172,3.46945e-15
363.053,3.46945e-15
364.109,3.46945e-15
365.165,3.46945e-15
366.046,3.46945e-15
367.102,3.46945e-15
368.159,3.46945e-15
369.039,3.46945e-15
370.095,3.46945e-15
371.1517,3.46945e-15
372.032,3.46945e-15
373.088,3.46945e-15
374.145,3.46945e-15
375.0252,3.46945e-15
376.082,3.46945e-15
377.138,3.46945e-15
378.018,3.46945e-15
379.075,3.46945e-15
380.131,3.46945e-15
381.012,3.46945e-15
382.068,3.46945e-15
383.124,3.46945e-15
384.005,3.46945e-15
385.061,3.46945e-15
386.117,3.46945e-15
387.1739,3.46945e-15
388.054,3.46945e-15
389.111,3.46945e-15
390.167,3.46945e-15
391.0474,3.46945e-15
392.104,3.46945e-15
393.16,3.46945e-15
394.041,3.46945e-15
395.097,3.46945e-15
396.153,3.46945e-15
397.034,3.46945e-15
398.09,3.46945e-15
399.147,3.46945e-15
400.027,3.46945e-15
401.083,3.46945e-15
402.1397,3.46945e-15
403.02,3.46945e-15
404.076,3.46945e-15
405.133,3.46945e-15
406.0132,3.46945e-15
407.07,3.46945e-15
408.126,3.46945e-15
409.006,3.46945e-15
410.063,3.46945e-15
411.119,3.46945e-15
412.176,3.46945e-15
413.056,3.46945e-15
414.112,3.46945e-15
415.169,3.46945e-15
416.049,3.46945e-15
417.105,3.46945e-15
418.1619,3.46945e-15
419.042,3.46945e-15
420.099,3.46945e-15
421.155,3.46945e-15
422.0354,3.46945e-15
423.092,3.46945e-15
424.148,3.46945e-15
425.029,3.46945e-15
426.085,3.46945e-15
427.141,3.46945e-15
428.022,3.46945e-15
429.078,3.46945e-15
430.135,3.46945e-15
431.015,3.46945e-15
432.071,3.46945e-15
433.128,3.46945e-15
434.008,3.46945e-15
435.064,3.46945e-15
436.121,3.46945e-15
437.001,3.46945e-15
438.0576,3.46945e-15
439.114,3.46945e-15
440.17,3.46945e-15
441.051,3.46945e-15
442.107,3.46945e-15
443.164,3.46945e-15
444.044,3.46945e-15
445.1,3.46945e-15
446.157,3.46945e-15
447.037,3.46945e-15
448.093,3.46945e-15
449.1499,3.46945e-15
450.03,3.46945e-15
451.087,3.46945e-15
452.143,3.46945e-15
453.0234,3.46945e-15
454.08,3.46945e-15
455.136,3.46945e-15
456.017,3.46945e-15
457.073,3.46945e-15
458.129,3.46945e-15
459.01,3.46945e-15
460.066,3.46945e-15
461.123,3.46945e-15
462.003,3.46945e-15
463.059,3.46945e-15
464.116,3.46945e-15
465.1721,3.46945e-15
466.052,3.46945e-15
467.109,3.46945e-15
468.165,3.46945e-15
469.0456,3.46945e-15
470.102,3.46945e-15
471.158,3.46945e-15
472.039,3.46945e-15
473.095,3.46945e-15
474.152,3.46945e-15
475.032,3.46945e-15
476.088,3.46945e-15
477.145,3.46945e-15
478.025,3.46945e-15
479.081,3.46945e-15
480.1379,3.46945e-15
481.018,3.46945e-15
482.075,3.46945e-15
483.131,3.46945e-15
484.0114,3.46945e-15
485.0678,3.46945e-15
486.124,3.46945e-15
487.005,3.46945e-15
488.061,3.46945e-15
489.117,3.46945e-15
490.174,3.46945e-15
491.054,3.46945e-15
492.111,3.46945e-15
493.167,3.46945e-15
494.047,3.46945e-15
495.104,3.46945e-15
496.1601,3.46945e-15
497.04,3.46945e-15
498.097,3.46945e-15
499.153,3.46945e-15
500.0,3.46945e-15