File: PMMA/Validation_Results/BUW-FZJ/BUW-FZJ_PMMA01_Gasification_q50_Mass_R5.csv
Time,Mass
[s],[g]
0.0,28.3513
1.056409,28.3513
2.112818,28.3513
3.16923,28.3512
4.04957,28.351
5.10598,28.3506
6.16239,28.3495
7.04273,28.3475
8.09914,28.3441
9.15554,28.3384
10.0359,28.3317
11.0923,28.3243
12.1487,28.3165
13.029,28.3097
14.0855,28.3029
15.1419,28.2954
16.0222,28.2882
17.0786,28.2806
18.135,28.2718
19.0154,28.2631
20.0718,28.2536
21.12818,28.2425
22.0085,28.2313
23.06493,28.2192
24.1213,28.2047
25.00168,28.1903
26.0581,28.1746
27.1145,28.1561
28.1709,28.1361
29.0512,28.1164
30.1077,28.0952
31.1641,28.0707
32.0444,28.0467
33.1008,28.0214
34.1572,27.9922
35.0376,27.964
36.094,27.9345
37.1504,27.9008
38.0307,27.8686
39.0871,27.8351
40.1435,27.7973
41.0239,27.7613
42.0803,27.7242
43.1367,27.6825
44.017,27.6432
45.0735,27.6029
46.12986,27.5577
47.0102,27.5153
48.06661,27.472
49.123,27.4238
50.00336,27.3788
51.0598,27.3329
52.1162,27.282
53.1726,27.2302
54.0529,27.1819
55.1093,27.133
56.1657,27.0789
57.0461,27.0287
58.1025,26.9778
59.1589,26.9217
60.0392,26.8696
61.0957,26.817
62.1521,26.7591
63.0324,26.7054
64.0888,26.6513
65.1452,26.5917
66.0256,26.5367
67.082,26.4812
68.1384,26.4202
69.0187,26.3638
70.0751,26.3071
71.13154,26.2448
72.0119,26.1873
73.06829,26.1295
74.1247,26.066
75.005,26.0075
76.0614,25.9487
77.1179,25.8842
78.1743,25.8194
79.0546,25.7596
80.111,25.6996
81.1674,25.6339
82.0478,25.5733
83.1042,25.5125
84.1606,25.4459
85.0409,25.3846
86.0973,25.3231
87.1537,25.2557
88.0341,25.1937
89.0905,25.1315
90.1469,25.0634
91.0272,25.0008
92.0837,24.938
93.1401,24.8693
94.0204,24.806
95.0768,24.7427
96.13322,24.6733
97.0136,24.6096
98.06997,24.5457
99.1264,24.4757
100.007,24.4115
101.063,24.3471
102.12,24.2766
103.176,24.206
104.056,24.1411
105.1127,24.0761
106.169,24.0049
107.049,23.9396
108.106,23.8741
109.162,23.8026
110.043,23.7368
111.099,23.6709
112.155,23.5989
113.036,23.5328
114.092,23.4666
115.149,23.3941
116.029,23.3276
117.085,23.261
118.142,23.1882
119.022,23.1213
120.078,23.0544
121.1349,22.9812
122.015,22.914
123.072,22.8467
124.128,22.7731
125.0084,22.7056
126.065,22.638
127.121,22.5641
128.002,22.4963
129.058,22.4284
130.114,22.3542
131.171,22.2799
132.051,22.2117
133.108,22.1434
134.164,22.0688
135.044,22.0003
136.101,21.9317
137.1571,21.8568
138.037,21.7881
139.094,21.7193
140.15,21.6441
141.0306,21.5751
142.087,21.506
143.143,21.4306
144.024,21.3613
145.08,21.292
146.137,21.2163
147.017,21.1468
148.073,21.0773
149.13,21.0013
150.01,20.9317
151.066,20.8619
152.1229,20.7857
153.003,20.7158
154.06,20.6458
155.116,20.5694
156.172,20.4929
157.053,20.4228
158.109,20.3525
159.166,20.2758
160.046,20.2054
161.102,20.135
162.159,20.0581
163.039,19.9875
164.096,19.9169
165.152,19.8398
166.032,19.769
167.089,19.6982
168.1451,19.6209
169.025,19.55
170.082,19.479
171.138,19.4016
172.0186,19.3305
173.075,19.2593
174.131,19.1817
175.012,19.1104
176.068,19.0391
177.125,18.9613
178.005,18.8899
179.061,18.8185
180.118,18.7405
181.174,18.6624
182.054,18.5908
183.1109,18.5192
184.1673,18.441
185.048,18.3692
186.104,18.2974
187.16,18.2191
188.0408,18.1472
189.097,18.0753
190.154,17.9968
191.034,17.9248
192.09,17.8527
193.147,17.7741
194.027,17.7019
195.084,17.6298
196.14,17.551
197.02,17.4787
198.077,17.4064
199.1331,17.3275
200.013,17.2551
201.07,17.1827
202.126,17.1036
203.0066,17.0311
204.063,16.9586
205.119,16.8794
206.176,16.8002
207.056,16.7275
208.113,16.6548
209.169,16.5755
210.049,16.5027
211.106,16.4299
212.162,16.3505
213.042,16.2776
214.099,16.2047
215.1553,16.1251
216.036,16.0521
217.092,15.979
218.148,15.8993
219.0288,15.8262
220.085,15.7531
221.142,15.6734
222.022,15.6001
223.078,15.5269
224.135,15.447
225.015,15.3737
226.072,15.3003
227.128,15.2203
228.008,15.1468
229.065,15.0734
230.1211,14.9932
231.001,14.9197
232.058,14.8462
233.114,14.7659
234.171,14.6856
235.051,14.6119
236.107,14.5382
237.164,14.4578
238.044,14.384
239.101,14.3103
240.157,14.2297
241.037,14.1558
242.094,14.0819
243.15,14.0013
244.03,13.9273
245.087,13.8533
246.1433,13.7725
247.024,13.6984
248.08,13.6243
249.136,13.5434
250.0168,13.4692
251.073,13.395
252.13,13.314
253.01,13.2397
254.066,13.1653
255.123,13.0842
256.003,13.0098
257.06,12.9353
258.116,12.854
259.172,12.7727
260.053,12.6981
261.109,12.6235
262.1655,12.5421
263.046,12.4674
264.102,12.3927
265.159,12.3111
266.039,12.2363
267.095,12.1615
268.152,12.07977
269.032,12.0048
270.089,11.9299
271.145,11.848
272.025,11.773
273.082,11.6979
274.138,11.6159
275.018,11.5408
276.075,11.4655
277.1313,11.3834
278.012,11.3081
279.068,11.2327
280.124,11.1504
281.0048,11.0749
282.061,10.9994
283.118,10.9169
284.174,10.8342
285.054,10.7584
286.111,10.68246
287.167,10.5995
288.048,10.5232
289.104,10.4468
290.16,10.3632
291.041,10.2864
292.097,10.2093
293.1535,10.1248
294.034,10.0471
295.09,9.96914
296.147,9.88365
297.027,9.8049
298.083,9.725739
299.14,9.63893
300.02,9.558885
301.077,9.47834
302.133,9.38991
303.013,9.30829
304.07,9.22607
305.126,9.1357
306.006,9.05219
307.063,8.96796
308.1193,8.87521
309.1757,8.78149
310.056,8.69465
311.112,8.60681
312.169,8.50993
313.0492,8.42038
314.106,8.32994
315.162,8.23031
316.042,8.13805
317.099,8.04486
318.155,7.9422
319.036,7.84719
320.092,7.75131
321.148,7.6458
322.029,7.54828
323.085,7.45002
324.1415,7.34203
325.022,7.24236
326.078,7.14209
327.135,7.03206
328.015,6.93066
329.071,6.82879
330.128,6.71717
331.008,6.61443
332.065,6.51134
333.121,6.39854
334.001,6.29482
335.058,6.19085
336.114,6.07718
337.171,5.9633
338.051,5.85872
339.107,5.75403
340.1637,5.63968
341.044,5.53476
342.1,5.42979
343.157,5.31521
344.0372,5.21015
345.094,5.10508
346.15,4.9905
347.03,4.88546
348.087,4.780481
349.143,4.66603
350.024,4.56118
351.08,4.45642
352.136,4.34227
353.017,4.23777
354.073,4.13338
355.1295,4.01972
356.01,3.91569
357.066,3.81182
358.123,3.69877
359.003,3.59538
360.0594,3.49219
361.116,3.37995
362.172,3.26802
363.053,3.1657
364.109,3.063685
365.165,2.95284
366.046,2.85155
367.102,2.75061
368.159,2.64099
369.039,2.54089
370.095,2.4412
371.1517,2.33305
372.032,2.23436
373.088,2.13622
374.145,2.02978
375.0252,1.93272
376.082,1.83629
377.138,1.73185
378.018,1.63669
379.075,1.54235
380.131,1.44026
381.012,1.34744
382.068,1.25556
383.124,1.15612
384.005,1.066
385.061,0.976995
386.117,0.881008
387.1739,0.786693
388.054,0.701348
389.111,0.617782
390.167,0.52825
391.0474,0.448085
392.104,0.370331
393.16,0.288002
394.041,0.216349
395.097,0.149271
396.153,0.083183
397.034,0.034429
398.09,0.006361
399.147,0.000108
400.027,3.46945e-15
401.083,3.46945e-15
402.1397,3.46945e-15
403.02,3.46945e-15
404.076,3.46945e-15
405.133,3.46945e-15
406.0132,3.46945e-15
407.07,3.46945e-15
408.126,3.46945e-15
409.006,3.46945e-15
410.063,3.46945e-15
411.119,3.46945e-15
412.176,3.46945e-15
413.056,3.46945e-15
414.112,3.46945e-15
415.169,3.46945e-15
416.049,3.46945e-15
417.105,3.46945e-15
418.1619,3.46945e-15
419.042,3.46945e-15
420.099,3.46945e-15
421.155,3.46945e-15
422.0354,3.46945e-15
423.092,3.46945e-15
424.148,3.46945e-15
425.029,3.46945e-15
426.085,3.46945e-15
427.141,3.46945e-15
428.022,3.46945e-15
429.078,3.46945e-15
430.135,3.46945e-15
431.015,3.46945e-15
432.071,3.46945e-15
433.128,3.46945e-15
434.008,3.46945e-15
435.064,3.46945e-15
436.121,3.46945e-15
437.001,3.46945e-15
438.0576,3.46945e-15
439.114,3.46945e-15
440.17,3.46945e-15
441.051,3.46945e-15
442.107,3.46945e-15
443.164,3.46945e-15
444.044,3.46945e-15
445.1,3.46945e-15
446.157,3.46945e-15
447.037,3.46945e-15
448.093,3.46945e-15
449.1499,3.46945e-15
450.03,3.46945e-15
451.087,3.46945e-15
452.143,3.46945e-15
453.0234,3.46945e-15
454.08,3.46945e-15
455.136,3.46945e-15
456.017,3.46945e-15
457.073,3.46945e-15
458.129,3.46945e-15
459.01,3.46945e-15
460.066,3.46945e-15
461.123,3.46945e-15
462.003,3.46945e-15
463.059,3.46945e-15
464.116,3.46945e-15
465.1721,3.46945e-15
466.052,3.46945e-15
467.109,3.46945e-15
468.165,3.46945e-15
469.0456,3.46945e-15
470.102,3.46945e-15
471.158,3.46945e-15
472.039,3.46945e-15
473.095,3.46945e-15
474.152,3.46945e-15
475.032,3.46945e-15
476.088,3.46945e-15
477.145,3.46945e-15
478.025,3.46945e-15
479.081,3.46945e-15
480.1379,3.46945e-15
481.018,3.46945e-15
482.075,3.46945e-15
483.131,3.46945e-15
484.0114,3.46945e-15
485.0678,3.46945e-15
486.124,3.46945e-15
487.005,3.46945e-15
488.061,3.46945e-15
489.117,3.46945e-15
490.174,3.46945e-15
491.054,3.46945e-15
492.111,3.46945e-15
493.167,3.46945e-15
494.047,3.46945e-15
495.104,3.46945e-15
496.1601,3.46945e-15
497.04,3.46945e-15
498.097,3.46945e-15
499.153,3.46945e-15
500.0,3.46945e-15