File: PMMA/Validation_Results/BUW-FZJ/BUW-FZJ_ApproachA_Gasification_q50_Mass_R4.csv
Time,Mass
[s],[g]
0.0,25.3526
1.056409,25.3526
2.112818,25.3526
3.16923,25.3526
4.04957,25.3526
5.10598,25.3526
6.16239,25.3525
7.04273,25.3524
8.09914,25.3522
9.15554,25.3519
10.0359,25.3515
11.0923,25.3509
12.1487,25.35
13.029,25.349
14.0855,25.3477
15.1419,25.346
16.0222,25.3442
17.0786,25.342
18.135,25.3393
19.0154,25.3366
20.0718,25.3335
21.12818,25.3298
22.0085,25.3261
23.06493,25.322
24.1213,25.3173
25.00168,25.3124
26.0581,25.3072
27.1145,25.3008
28.1709,25.2936
29.0512,25.2862
30.1077,25.278
31.1641,25.2678
32.0444,25.2573
33.1008,25.2456
34.1572,25.2312
35.0376,25.2165
36.094,25.2002
37.1504,25.1806
38.0307,25.1609
39.0871,25.1395
40.1435,25.1141
41.0239,25.0891
42.0803,25.0623
43.1367,25.0312
44.017,25.001
45.0735,24.9692
46.12986,24.9327
47.0102,24.8977
48.06661,24.8612
49.123,24.8199
50.00336,24.7807
51.0598,24.7402
52.1162,24.6947
53.1726,24.6478
54.0529,24.6037
55.1093,24.5585
56.1657,24.5082
57.0461,24.461
58.1025,24.413
59.1589,24.3596
60.0392,24.3099
61.0957,24.2593
62.1521,24.2033
63.0324,24.1513
64.0888,24.0985
65.1452,24.0402
66.0256,23.9862
67.082,23.9315
68.1384,23.8713
69.0187,23.8155
70.0751,23.7591
71.13154,23.6971
72.0119,23.6398
73.06829,23.5819
74.1247,23.5184
75.005,23.4597
76.0614,23.4005
77.1179,23.3356
78.1743,23.2702
79.0546,23.2099
80.111,23.1492
81.1674,23.0826
82.0478,23.0213
83.1042,22.9596
84.1606,22.892
85.0409,22.8297
86.0973,22.7672
87.1537,22.6986
88.0341,22.6355
89.0905,22.5721
90.1469,22.5028
91.0272,22.4389
92.0837,22.3748
93.1401,22.3047
94.0204,22.2402
95.0768,22.1755
96.13322,22.1046
97.0136,22.0395
98.06997,21.9742
99.1264,21.9028
100.007,21.8371
101.063,21.7713
102.12,21.6993
103.176,21.6271
104.056,21.5607
105.1127,21.4942
106.169,21.4215
107.049,21.3546
108.106,21.2877
109.162,21.2145
110.043,21.1472
111.099,21.0798
112.155,21.0061
113.036,20.9385
114.092,20.8707
115.149,20.7966
116.029,20.7285
117.085,20.6604
118.142,20.5858
119.022,20.5174
120.078,20.4489
121.1349,20.3739
122.015,20.3052
123.072,20.2362
124.128,20.161
125.0084,20.0918
126.065,20.0226
127.121,19.9469
128.002,19.8774
129.058,19.8078
130.114,19.7318
131.171,19.6556
132.051,19.5857
133.108,19.5156
134.164,19.4391
135.044,19.3688
136.101,19.2984
137.1571,19.2215
138.037,19.1509
139.094,19.0802
140.15,19.0029
141.0306,18.9319
142.087,18.8609
143.143,18.7832
144.024,18.712
145.08,18.6405
146.137,18.5625
147.017,18.4909
148.073,18.4191
149.13,18.3407
150.01,18.2687
151.066,18.1966
152.1229,18.1178
153.003,18.0454
154.06,17.9729
155.116,17.8937
156.172,17.8144
157.053,17.7415
158.109,17.6685
159.166,17.5887
160.046,17.5155
161.102,17.4421
162.159,17.3619
163.039,17.2882
164.096,17.2144
165.152,17.1338
166.032,17.0597
167.089,16.9855
168.1451,16.9044
169.025,16.8299
170.082,16.7553
171.138,16.6737
172.0186,16.5988
173.075,16.5237
174.131,16.4416
175.012,16.3663
176.068,16.2907
177.125,16.2081
178.005,16.1322
179.061,16.0562
180.118,15.9731
181.174,15.8897
182.054,15.8132
183.1109,15.7365
184.1673,15.6526
185.048,15.5756
186.104,15.4984
187.16,15.4139
188.0408,15.3364
189.097,15.2586
190.154,15.1736
191.034,15.0954
192.09,15.0171
193.147,14.9315
194.027,14.8528
195.084,14.7739
196.14,14.6876
197.02,14.6083
198.077,14.5288
199.1331,14.4419
200.013,14.3619
201.07,14.2818
202.126,14.1941
203.0066,14.1135
204.063,14.0327
205.119,13.9444
206.176,13.8557
207.056,13.7743
208.113,13.6926
209.169,13.6033
210.049,13.5211
211.106,13.4388
212.162,13.3487
213.042,13.2658
214.099,13.1828
215.1553,13.0919
216.036,13.0083
217.092,12.9246
218.148,12.8329
219.0288,12.7485
220.085,12.6639
221.142,12.5714
222.022,12.4862
223.078,12.4009
224.135,12.3075
225.015,12.2216
226.072,12.1355
227.128,12.0412
228.008,11.9545
229.065,11.8676
230.1211,11.7724
231.001,11.6849
232.058,11.5971
233.114,11.501
234.171,11.4045
235.051,11.3158
236.107,11.2268
237.164,11.1294
238.044,11.0398
239.101,10.9498
240.157,10.8514
241.037,10.7608
242.094,10.6699
243.15,10.5704
244.03,10.4788
245.087,10.3868
246.1433,10.2861
247.024,10.1934
248.08,10.1004
249.136,9.99849
250.0168,9.9047
251.073,9.81053
252.13,9.70736
253.01,9.61236
254.066,9.51694
255.123,9.41239
256.003,9.316096
257.06,9.21935
258.116,9.1133
259.172,9.00671
260.053,8.90849
261.109,8.80977
262.1655,8.7015
263.046,8.60175
264.102,8.50145
265.159,8.39142
266.039,8.28994
267.095,8.18785
268.152,8.07583
269.032,7.97254
270.089,7.86863
271.145,7.75452
272.025,7.64924
273.082,7.54328
274.138,7.42698
275.018,7.31963
276.075,7.21155
277.1313,7.092866
278.012,6.98333
279.068,6.873027
280.124,6.7519
281.0048,6.64012
282.061,6.52755
283.118,6.40395
284.174,6.27944
285.054,6.16456
286.111,6.0489
287.167,5.92189
288.048,5.80472
289.104,5.68678
290.16,5.55735
291.041,5.43797
292.097,5.3179
293.1535,5.18614
294.034,5.06466
295.09,4.9425
296.147,4.80848
297.027,4.68499
298.083,4.56086
299.14,4.42479
300.02,4.2995
301.077,4.17365
302.133,4.03578
303.013,3.90892
304.07,3.7816
305.126,3.64222
306.006,3.514026
307.063,3.385401
308.1193,3.244752
309.1757,3.10376
310.056,2.97436
311.112,2.84471
312.169,2.70303
313.0492,2.57309
314.106,2.443
315.162,2.30109
316.042,2.17099
317.099,2.04103
318.155,1.89973
319.036,1.77041
320.092,1.6414
321.148,1.50144
322.029,1.37441
323.085,1.24802
324.1415,1.11099
325.022,0.986715
326.078,0.864499
327.135,0.732575
328.015,0.614234
329.071,0.499046
330.128,0.376607
331.008,0.27005
332.065,0.171772
333.121,0.079713
334.001,0.020931
335.058,0.001598
336.114,1.1e-05
337.171,6.93889e-15
338.051,6.93889e-15
339.107,6.93889e-15
340.1637,6.93889e-15
341.044,6.93889e-15
342.1,6.93889e-15
343.157,6.93889e-15
344.0372,6.93889e-15
345.094,6.93889e-15
346.15,6.93889e-15
347.03,6.93889e-15
348.087,6.93889e-15
349.143,6.93889e-15
350.024,6.93889e-15
351.08,6.93889e-15
352.136,6.93889e-15
353.017,6.93889e-15
354.073,6.93889e-15
355.1295,6.93889e-15
356.01,6.93889e-15
357.066,6.93889e-15
358.123,6.93889e-15
359.003,6.93889e-15
360.0594,6.93889e-15
361.116,6.93889e-15
362.172,6.93889e-15
363.053,6.93889e-15
364.109,6.93889e-15
365.165,6.93889e-15
366.046,6.93889e-15
367.102,6.93889e-15
368.159,6.93889e-15
369.039,6.93889e-15
370.095,6.93889e-15
371.1517,6.93889e-15
372.032,6.93889e-15
373.088,6.93889e-15
374.145,6.93889e-15
375.0252,6.93889e-15
376.082,6.93889e-15
377.138,6.93889e-15
378.018,6.93889e-15
379.075,6.93889e-15
380.131,6.93889e-15
381.012,6.93889e-15
382.068,6.93889e-15
383.124,6.93889e-15
384.005,6.93889e-15
385.061,6.93889e-15
386.117,6.93889e-15
387.1739,6.93889e-15
388.054,6.93889e-15
389.111,6.93889e-15
390.167,6.93889e-15
391.0474,6.93889e-15
392.104,6.93889e-15
393.16,6.93889e-15
394.041,6.93889e-15
395.097,6.93889e-15
396.153,6.93889e-15
397.034,6.93889e-15
398.09,6.93889e-15
399.147,6.93889e-15
400.027,6.93889e-15
401.083,6.93889e-15
402.1397,6.93889e-15
403.02,6.93889e-15
404.076,6.93889e-15
405.133,6.93889e-15
406.0132,6.93889e-15
407.07,6.93889e-15
408.126,6.93889e-15
409.006,6.93889e-15
410.063,6.93889e-15
411.119,6.93889e-15
412.176,6.93889e-15
413.056,6.93889e-15
414.112,6.93889e-15
415.169,6.93889e-15
416.049,6.93889e-15
417.105,6.93889e-15
418.1619,6.93889e-15
419.042,6.93889e-15
420.099,6.93889e-15
421.155,6.93889e-15
422.0354,6.93889e-15
423.092,6.93889e-15
424.148,6.93889e-15
425.029,6.93889e-15
426.085,6.93889e-15
427.141,6.93889e-15
428.022,6.93889e-15
429.078,6.93889e-15
430.135,6.93889e-15
431.015,6.93889e-15
432.071,6.93889e-15
433.128,6.93889e-15
434.008,6.93889e-15
435.064,6.93889e-15
436.121,6.93889e-15
437.001,6.93889e-15
438.0576,6.93889e-15
439.114,6.93889e-15
440.17,6.93889e-15
441.051,6.93889e-15
442.107,6.93889e-15
443.164,6.93889e-15
444.044,6.93889e-15
445.1,6.93889e-15
446.157,6.93889e-15
447.037,6.93889e-15
448.093,6.93889e-15
449.1499,6.93889e-15
450.03,6.93889e-15
451.087,6.93889e-15
452.143,6.93889e-15
453.0234,6.93889e-15
454.08,6.93889e-15
455.136,6.93889e-15
456.017,6.93889e-15
457.073,6.93889e-15
458.129,6.93889e-15
459.01,6.93889e-15
460.066,6.93889e-15
461.123,6.93889e-15
462.003,6.93889e-15
463.059,6.93889e-15
464.116,6.93889e-15
465.1721,6.93889e-15
466.052,6.93889e-15
467.109,6.93889e-15
468.165,6.93889e-15
469.0456,6.93889e-15
470.102,6.93889e-15
471.158,6.93889e-15
472.039,6.93889e-15
473.095,6.93889e-15
474.152,6.93889e-15
475.032,6.93889e-15
476.088,6.93889e-15
477.145,6.93889e-15
478.025,6.93889e-15
479.081,6.93889e-15
480.1379,6.93889e-15
481.018,6.93889e-15
482.075,6.93889e-15
483.131,6.93889e-15
484.0114,6.93889e-15
485.0678,6.93889e-15
486.124,6.93889e-15
487.005,6.93889e-15
488.061,6.93889e-15
489.117,6.93889e-15
490.174,6.93889e-15
491.054,6.93889e-15
492.111,6.93889e-15
493.167,6.93889e-15
494.047,6.93889e-15
495.104,6.93889e-15
496.1601,6.93889e-15
497.04,6.93889e-15
498.097,6.93889e-15
499.153,6.93889e-15
500.0,6.93889e-15