File: PMMA/Validation_Results/BUW-FZJ/BUW-FZJ_PMMA01_Gasification_q50_Temp_R5.csv
Time,T_back_1
[s],[K]
0.0,291.67
1.056409,291.67
2.112818,291.67
3.16923,291.67
4.04957,291.67
5.10598,291.67
6.16239,291.67
7.04273,291.67
8.09914,291.67
9.15554,291.671
10.0359,291.674
11.0923,291.681
12.1487,291.694
13.029,291.715
14.0855,291.748
15.1419,291.799
16.0222,291.864
17.0786,291.949
18.135,292.066
19.0154,292.198
20.0718,292.356
21.12818,292.558
22.0085,292.771
23.06493,293.012
24.1213,293.305
25.00168,293.602
26.0581,293.927
27.1145,294.311
28.1709,294.726
29.0512,295.131
30.1077,295.561
31.1641,296.057
32.0444,296.533
33.1008,297.032
34.1572,297.599
35.0376,298.139
36.094,298.698
37.1504,299.327
38.0307,299.921
39.0871,300.531
40.1435,301.214
41.0239,301.854
42.0803,302.508
43.1367,303.236
44.017,303.915
45.0735,304.606
46.12986,305.371
47.0102,306.083
48.06661,306.804
49.123,307.6
50.00336,308.338
51.0598,309.084
52.1162,309.905
53.1726,310.733
54.0529,311.498
55.1093,312.268
56.1657,313.114
57.0461,313.893
58.1025,314.677
59.1589,315.535
60.0392,316.324
61.0957,317.115
62.1521,317.981
63.0324,318.776
64.0888,319.571
65.1452,320.439
66.0256,321.235
67.082,322.03
68.1384,322.896
69.0187,323.688
70.0751,324.478
71.13154,325.34
72.0119,326.129
73.06829,326.918
74.1247,327.78
75.005,328.568
76.0614,329.357
77.1179,330.216
78.1743,331.075
79.0546,331.861
80.111,332.647
81.1674,333.503
82.0478,334.286
83.1042,335.069
84.1606,335.921
85.0409,336.701
86.0973,337.48
87.1537,338.327
88.0341,339.103
89.0905,339.877
90.1469,340.72
91.0272,341.49
92.0837,342.259
93.1401,343.096
94.0204,343.86
95.0768,344.623
96.13322,345.453
97.0136,346.211
98.06997,346.968
99.1264,347.7899
100.007,348.541
101.063,349.29
102.12,350.105
103.176,350.916
104.056,351.658
105.1127,352.396
106.169,353.199
107.049,353.932
108.106,354.663
109.162,355.456
110.043,356.181
111.099,356.9022
112.155,357.686
113.036,358.402
114.092,359.114
115.149,359.887
116.029,360.594
117.085,361.296
118.142,362.058
119.022,362.7537
120.078,363.446
121.1349,364.197
122.015,364.881
123.072,365.563
124.128,366.301
125.0084,366.974
126.065,367.644
127.121,368.369
128.002,369.03
129.058,369.686
130.114,370.397
131.171,371.102
132.051,371.744
133.108,372.38
134.164,373.069
135.044,373.695
136.101,374.315
137.1571,374.986
138.037,375.598
139.094,376.206
140.15,376.865
141.0306,377.466
142.087,378.064
143.143,378.715
144.024,379.3076
145.08,379.899
146.137,380.542
147.017,381.128
148.073,381.714
149.13,382.351
150.01,382.933
151.066,383.514
152.1229,384.147
153.003,384.726
154.06,385.304
155.116,385.934
156.172,386.562
157.053,387.137
158.109,387.713
159.166,388.34
160.046,388.914
161.102,389.489
162.159,390.115
163.039,390.689
164.096,391.263
165.152,391.889
166.032,392.464
167.089,393.039
168.1451,393.667
169.025,394.243
170.082,394.82
171.138,395.45
172.0186,396.0285
173.075,396.607
174.131,397.2405
175.012,397.822
176.068,398.404
177.125,399.041
178.005,399.626
179.061,400.213
180.118,400.8546
181.174,401.499
182.054,402.091
183.1109,402.684
184.1673,403.334
185.048,403.932
186.104,404.533
187.16,405.19
188.0408,405.794
189.097,406.402
190.154,407.067
191.034,407.681
192.09,408.297
193.147,408.972
194.027,409.594
195.084,410.219
196.14,410.905
197.02,411.538
198.077,412.174
199.1331,412.871
200.013,413.516
201.07,414.164
202.126,414.877
203.0066,415.535
204.063,416.197
205.119,416.925
206.176,417.659
207.056,418.338
208.113,419.022
209.169,419.776
210.049,420.472
211.106,421.175
212.162,421.951
213.042,422.669
214.099,423.395
215.1553,424.195
216.036,424.935
217.092,425.681
218.148,426.501
219.0288,427.258
220.085,428.021
221.142,428.86
222.022,429.635
223.078,430.417
224.135,431.276
225.015,432.0703
226.072,432.871
227.128,433.752
228.008,434.566
229.065,435.388
230.1211,436.292
231.001,437.127
232.058,437.971
233.114,438.9
234.171,439.838
235.051,440.707
236.107,441.583
237.164,442.549
238.044,443.443
239.101,444.347
240.157,445.342
241.037,446.265
242.094,447.198
243.15,448.227
244.03,449.18
245.087,450.145
246.1433,451.21
247.024,452.198
248.08,453.198
249.136,454.302
250.0168,455.328
251.073,456.367
252.13,457.515
253.01,458.583
254.066,459.665
255.123,460.864
256.003,461.979
257.06,463.111
258.116,464.366
259.172,465.643
260.053,466.833
261.109,468.044
262.1655,469.391
263.046,470.649
264.102,471.933
265.159,473.364
266.039,474.706
267.095,476.08
268.152,477.611
269.032,479.045
270.089,480.51
271.145,482.142
272.025,483.671
273.082,485.231
274.138,486.971
275.018,488.601
276.075,490.266
277.1313,492.121
278.012,493.86
279.068,495.638
280.124,497.622
281.0048,499.482
282.061,501.384
283.118,503.507
284.174,505.683
285.054,507.725
286.111,509.815
287.167,512.149
288.048,514.341
289.104,516.5886
290.16,519.101
291.041,521.461
292.097,523.88
293.1535,526.588
294.034,529.131
295.09,531.75
296.147,534.685
297.027,537.449
298.083,540.287
299.14,543.477
300.02,546.511
301.077,549.65
302.133,553.21
303.013,556.609
304.07,560.2084
305.126,564.363
306.006,568.499
307.063,573.068
308.1193,578.049
309.1757,582.332
310.056,585.792
311.112,588.915
312.169,592.034
313.0492,594.699
314.106,597.172
315.162,599.693
316.042,601.817
317.099,603.827
318.155,605.901
319.036,607.688
320.092,609.386
321.148,611.145
322.029,612.678
323.085,614.142
324.1415,615.6662
325.022,616.997
326.078,618.2909
327.135,619.634
328.015,620.819
329.071,621.974
330.128,623.1825
331.008,624.253
332.065,625.3078
333.121,626.4181
334.001,627.41
335.058,628.392
336.114,629.435
337.171,630.459
338.051,631.386
339.107,632.302
340.1637,633.283
341.044,634.175
342.1,635.063
343.157,636.027
344.0372,636.9
345.094,637.774
346.15,638.725
347.03,639.595
348.087,640.464
349.143,641.407
350.024,642.276
351.08,643.154
352.136,644.106
353.017,644.98
354.073,645.863
355.1295,646.833
356.01,647.718
357.066,648.615
358.123,649.603
359.003,650.509
360.0594,651.429
361.116,652.441
362.172,653.455
363.053,654.402
364.109,655.358
365.165,656.418
366.046,657.388
367.102,658.3876
368.159,659.49
369.039,660.505
370.095,661.553
371.1517,662.703
372.032,663.767
373.088,664.882
374.145,666.11
375.0252,667.237
376.082,668.4419
377.138,669.745
378.018,670.966
379.075,672.28
380.131,673.713
381.012,675.04
382.068,676.485
383.124,678.065
384.005,679.633
385.061,681.249
386.117,683.043
387.1739,685.077
388.054,686.937
389.111,688.949
390.167,691.407
391.0474,693.669
392.104,696.435
393.16,699.416
394.041,703.0804
395.097,706.547
396.153,711.879
397.034,717.069
398.09,724.77
399.147,735.504
400.027,751.395
401.083,778.193
402.1397,807.789
403.02,825.331
404.076,836.841
405.133,845.712
406.0132,851.759
407.07,856.445
408.126,860.558
409.006,863.6712
410.063,866.307
411.119,868.813
412.176,871.019
413.056,872.834
414.112,874.482
415.169,876.13
416.049,877.524
417.105,878.822
418.1619,880.1465
419.042,881.286
420.099,882.365
421.155,883.475
422.0354,884.444
423.092,885.368
424.148,886.3329
425.029,887.17
426.085,887.981
427.141,888.8312
428.022,889.572
429.078,890.297
430.135,891.049
431.015,891.719
432.071,892.365
433.128,893.044
434.008,893.647
435.064,894.227
436.121,894.84
437.001,895.387
438.0576,895.902
439.114,896.468
440.17,897.002
441.051,897.478
442.107,897.945
443.164,898.427
444.044,898.86
445.1,899.291
446.157,899.736
447.037,900.124
448.093,900.52
449.1499,900.9312
450.03,901.292
451.087,901.64
452.143,902.022
453.0234,902.363
454.08,902.69
455.136,903.033
456.017,903.335
457.073,903.636
458.129,903.96
459.01,904.254
460.066,904.533
461.123,904.829
462.003,905.094
463.059,905.352
464.116,905.628
465.1721,905.89
466.052,906.125
467.109,906.359
468.165,906.61
469.0456,906.832
470.102,907.05
471.158,907.283
472.039,907.491
473.095,907.693
474.152,907.91
475.032,908.104
476.088,908.293
477.145,908.495
478.025,908.6767
479.081,908.854
480.1379,909.043
481.018,909.213
482.075,909.379
483.131,909.556
484.0114,909.716
485.0678,909.872
486.124,910.038
487.005,910.188
488.061,910.335
489.117,910.491
490.174,910.645
491.054,910.783
492.111,910.919
493.167,911.064
494.047,911.193
495.104,911.32
496.1601,911.458
497.04,911.581
498.097,911.702
499.153,911.832
500.0,911.945