File: PMMA/Validation_Results/BUW-FZJ/BUW-FZJ_ApproachB_Gasification_q50_Temp_R2.csv
Time,T_back_1
[s],[K]
0.0,291.2
1.056409,291.2
2.112818,291.2
3.16923,291.2
4.04957,291.2
5.10598,291.2
6.16239,291.2
7.04273,291.2
8.09914,291.2
9.15554,291.2
10.0359,291.2
11.0923,291.2
12.1487,291.201
13.029,291.201
14.0855,291.203
15.1419,291.206
16.0222,291.211
17.0786,291.219
18.135,291.233
19.0154,291.25
20.0718,291.274
21.12818,291.31
22.0085,291.352
23.06493,291.406
24.1213,291.479
25.00168,291.56
26.0581,291.657
27.1145,291.782
28.1709,291.929
29.0512,292.084
30.1077,292.26
31.1641,292.476
32.0444,292.698
33.1008,292.944
34.1572,293.239
35.0376,293.535
36.094,293.857
37.1504,294.238
38.0307,294.613
39.0871,295.016
40.1435,295.485
41.0239,295.942
42.0803,296.426
43.1367,296.984
44.017,297.523
45.0735,298.089
46.12986,298.735
47.0102,299.354
48.06661,299.999
49.123,300.731
50.00336,301.427
51.0598,302.147
52.1162,302.96
53.1726,303.8
54.0529,304.593
55.1093,305.408
56.1657,306.322
57.0461,307.181
58.1025,308.061
59.1589,309.042
60.0392,309.961
61.0957,310.9
62.1521,311.943
63.0324,312.917
64.0888,313.908
65.1452,315.007
66.0256,316.031
67.082,317.069
68.1384,318.218
69.0187,319.285
70.0751,320.366
71.13154,321.559
72.0119,322.665
73.06829,323.783
74.1247,325.016
75.005,326.156
76.0614,327.307
77.1179,328.574
78.1743,329.852
79.0546,331.033
80.111,332.222
81.1674,333.529
82.0478,334.735
83.1042,335.948
84.1606,337.281
85.0409,338.509
86.0973,339.743
87.1537,341.097
88.0341,342.345
89.0905,343.598
90.1469,344.972
91.0272,346.236
92.0837,347.505
93.1401,348.896
94.0204,350.175
95.0768,351.458
96.13322,352.863
97.0136,354.155
98.06997,355.451
99.1264,356.869
100.007,358.173
101.063,359.479
102.12,360.909
103.176,362.342
104.056,363.658
105.1127,364.978
106.169,366.421
107.049,367.746
108.106,369.073
109.162,370.524
110.043,371.857
111.099,373.192
112.155,374.651
113.036,375.99
114.092,377.332
115.149,378.797
116.029,380.1427
117.085,381.49
118.142,382.962
119.022,384.313
120.078,385.665
121.1349,387.143
122.015,388.5
123.072,389.857
124.128,391.34
125.0084,392.701
126.065,394.064
127.121,395.551
128.002,396.916
129.058,398.283
130.114,399.775
131.171,401.269
132.051,402.64
133.108,404.012
134.164,405.51
135.044,406.885
136.101,408.2604
137.1571,409.762
138.037,411.141
139.094,412.52
140.15,414.026
141.0306,415.408
142.087,416.79
143.143,418.3
144.024,419.686
145.08,421.072
146.137,422.586
147.017,423.974
148.073,425.364
149.13,426.882
150.01,428.274
151.066,429.667
152.1229,431.189
153.003,432.584
154.06,433.981
155.116,435.506
156.172,437.033
157.053,438.434
158.109,439.835
159.166,441.366
160.046,442.77
161.102,444.175
162.159,445.71
163.039,447.117
164.096,448.526
165.152,450.064
166.032,451.475
167.089,452.888
168.1451,454.43
169.025,455.844
170.082,457.26
171.138,458.806
172.0186,460.2247
173.075,461.644
174.131,463.194
175.012,464.617
176.068,466.04
177.125,467.594
178.005,469.02
179.061,470.448
180.118,472.006
181.174,473.566
182.054,474.997
183.1109,476.429
184.1673,477.993
185.048,479.428
186.104,480.864
187.16,482.431
188.0408,483.87
189.097,485.309
190.154,486.88
191.034,488.322
192.09,489.7645
193.147,491.3396
194.027,492.785
195.084,494.231
196.14,495.809
197.02,497.258
198.077,498.7073
199.1331,500.29
200.013,501.741
201.07,503.193
202.126,504.779
203.0066,506.233
204.063,507.688
205.119,509.276
206.176,510.864
207.056,512.321
208.113,513.778
209.169,515.369
210.049,516.827
211.106,518.286
212.162,519.878
213.042,521.337
214.099,522.797
215.1553,524.39
216.036,525.851
217.092,527.311
218.148,528.904
219.0288,530.363
220.085,531.8226
221.142,533.4141
222.022,534.872
223.078,536.329
224.135,537.917
225.015,539.371
226.072,540.822
227.128,542.404
228.008,543.853
229.065,545.299
230.1211,546.874
231.001,548.315
232.058,549.753
233.114,551.319
234.171,552.882
235.051,554.312
236.107,555.738
237.164,557.29
238.044,558.707
239.101,560.12
240.157,561.655
241.037,563.057
242.094,564.454
243.15,565.971
244.03,567.357
245.087,568.736
246.1433,570.234
247.024,571.6
248.08,572.9606
249.136,574.436
250.0168,575.782
251.073,577.119
252.13,578.569
253.01,579.891
254.066,581.204
255.123,582.627
256.003,583.922
257.06,585.206
258.116,586.597
259.172,587.976
260.053,589.231
261.109,590.475
262.1655,591.823
263.046,593.049
264.102,594.266
265.159,595.583
266.039,596.782
267.095,597.973
268.152,599.263
269.032,600.437
270.089,601.604
271.145,602.871
272.025,604.025
273.082,605.175
274.138,606.424
275.018,607.564
276.075,608.702
277.1313,609.94
278.012,611.074
279.068,612.208
280.124,613.445
281.0048,614.582
282.061,615.721
283.118,616.968
284.174,618.221
285.054,619.376
286.111,620.539
287.167,621.818
288.048,623
289.104,624.1947
290.16,625.513
291.041,626.736
292.097,627.975
293.1535,629.347
294.034,630.624
295.09,631.923
296.147,633.364
297.027,634.7112
298.083,636.085
299.14,637.615
300.02,639.05
301.077,640.52
302.133,642.165
303.013,643.713
304.07,645.306
305.126,647.097
306.006,648.789
307.063,650.541
308.1193,652.519
309.1757,654.5775
310.056,656.538
311.112,658.585
312.169,660.9184
313.0492,663.162
314.106,665.522
315.162,668.241
316.042,670.888
317.099,673.706
318.155,677.006
319.036,680.278
320.092,683.841
321.148,688.136
322.029,692.536
323.085,697.521
324.1415,703.905
325.022,710.998
326.078,720.133
327.135,734.076
328.015,753.721
329.071,782.873
330.128,811.357
331.008,830.052
332.065,843.903
333.121,855.433
334.001,863.663
335.058,870.197
336.114,875.952
337.171,880.623
338.051,884.192
339.107,887.203
340.1637,890.0099
341.044,892.235
342.1,894.178
343.157,896.05
344.0372,897.579
345.094,898.953
346.15,900.312
347.03,901.448
348.087,902.4896
349.143,903.539
350.024,904.431
351.08,905.261
352.136,906.11
353.017,906.843
354.073,907.536
355.1295,908.251
356.01,908.873
357.066,909.463
358.123,910.076
359.003,910.611
360.0594,911.123
361.116,911.656
362.172,912.165
363.053,912.612
364.109,913.041
365.165,913.492
366.046,913.89
367.102,914.274
368.159,914.677
369.039,915.034
370.095,915.38
371.1517,915.744
372.032,916.068
373.088,916.381
374.145,916.713
375.0252,917.009
376.082,917.295
377.138,917.599
378.018,917.871
379.075,918.134
380.131,918.415
381.012,918.665
382.068,918.91
383.124,919.17
384.005,919.402
385.061,919.629
386.117,919.871
387.1739,920.106
388.054,920.317
389.111,920.524
390.167,920.744
391.0474,920.942
392.104,921.135
393.16,921.342
394.041,921.528
395.097,921.71
396.153,921.9046
397.034,922.079
398.09,922.2501
399.147,922.434
400.027,922.6
401.083,922.761
402.1397,922.934
403.02,923.091
404.076,923.245
405.133,923.4091
406.0132,923.557
407.07,923.703
408.126,923.859
409.006,924.001
410.063,924.139
411.119,924.2876
412.176,924.434
413.056,924.566
414.112,924.696
415.169,924.834
416.049,924.96
417.105,925.085
418.1619,925.218
419.042,925.338
420.099,925.456
421.155,925.584
422.0354,925.699
423.092,925.812
424.148,925.935
425.029,926.046
426.085,926.155
427.141,926.274
428.022,926.381
429.078,926.487
430.135,926.6025
431.015,926.706
432.071,926.808
433.128,926.918
434.008,927.018
435.064,927.117
436.121,927.223
437.001,927.32
438.0576,927.415
439.114,927.517
440.17,927.619
441.051,927.71
442.107,927.8
443.164,927.898
444.044,927.986
445.1,928.074
446.157,928.168
447.037,928.253
448.093,928.336
449.1499,928.427
450.03,928.51
451.087,928.591
452.143,928.679
453.0234,928.758
454.08,928.836
455.136,928.921
456.017,928.998
457.073,929.074
458.129,929.157
459.01,929.231
460.066,929.304
461.123,929.383
462.003,929.455
463.059,929.5266
464.116,929.6039
465.1721,929.68
466.052,929.748
467.109,929.817
468.165,929.891
469.0456,929.958
470.102,930.024
471.158,930.096
472.039,930.161
473.095,930.225
474.152,930.2938
475.032,930.357
476.088,930.419
477.145,930.487
478.025,930.549
479.081,930.611
480.1379,930.676
481.018,930.7352
482.075,930.794
483.131,930.858
484.0114,930.916
485.0678,930.974
486.124,931.0357
487.005,931.092
488.061,931.149
489.117,931.2097
490.174,931.269
491.054,931.324
492.111,931.378
493.167,931.437
494.047,931.491
495.104,931.543
496.1601,931.601
497.04,931.652
498.097,931.704
499.153,931.759
500.0,931.809