File: PMMA/Validation_Results/BUW-FZJ/BUW-FZJ_B_Gasification_q50_Temp_R1.csv
Time,T_back_1
[s],[K]
0.0,290.65
1.0564,290.65
2.1128,290.65
3.1692,290.65
4.0496,290.65
5.106,290.65
6.1624,290.65
7.0427,290.65
8.0991,290.65
9.1555,290.65
10.0359,290.6501
11.0923,290.6503
12.1487,290.651
13.029,290.6524
14.0855,290.6552
15.1419,290.6607
16.0222,290.6689
17.0786,290.6817
18.135,290.7023
19.0154,290.7287
20.0718,290.7646
21.1282,290.816
22.0085,290.8762
23.0649,290.9513
24.1213,291.0515
25.0017,291.1618
26.0581,291.2922
27.1145,291.458
28.1709,291.6506
29.0512,291.8515
30.1077,292.0779
31.1641,292.354
32.0444,292.6345
33.1008,292.9433
34.1572,293.3116
35.0376,293.6786
36.094,294.0753
37.1504,294.5409
38.0307,294.9979
39.0871,295.4853
40.1435,296.05
41.0239,296.5978
42.0803,297.1757
43.1367,297.8386
44.017,298.4758
45.0735,299.1422
46.1299,299.9004
47.0102,300.6237
48.0666,301.3747
49.123,302.2236
50.0034,303.0283
51.0598,303.8589
52.1162,304.7926
53.1726,305.7547
54.0529,306.6605
55.1093,307.5895
56.1657,308.6273
57.0461,309.6004
58.1025,310.5944
59.1589,311.7009
60.0392,312.7346
61.0957,313.7872
62.1521,314.9551
63.0324,316.043
64.0888,317.1477
65.1452,318.3701
66.0256,319.5061
67.082,320.6567
68.1384,321.9272
69.0187,323.1052
70.0751,324.2961
71.1315,325.6086
72.0119,326.8234
73.0683,328.0494
74.1247,329.3984
75.005,330.6451
76.0614,331.9015
77.1179,333.2821
78.1743,334.6728
79.0546,335.9559
80.111,337.247
81.1674,338.6635
82.0478,339.9692
83.1042,341.2816
84.1606,342.7204
85.0409,344.0454
86.0973,345.3762
87.1537,346.834
88.0341,348.1756
89.0905,349.5222
90.1469,350.9963
91.0272,352.3521
92.0837,353.7121
93.1401,355.2002
94.0204,356.5682
95.0768,357.9398
96.1332,359.4399
97.0136,360.8183
98.07,362.1998
99.1264,363.7101
100.0067,365.0975
101.0631,366.4875
102.1195,368.0067
103.176,369.5287
104.0563,370.9262
105.1127,372.3259
106.1691,373.8552
107.0494,375.259
108.1059,376.6647
109.1623,378.2003
110.0426,379.6096
111.099,381.0206
112.1554,382.5615
113.0358,383.9756
114.0922,385.3911
115.1486,386.9369
116.0289,388.3552
117.0853,389.7748
118.1417,391.3249
119.0221,392.7474
120.0785,394.1711
121.1349,395.7254
122.0152,397.1511
123.0716,398.578
124.1281,400.1357
125.0084,401.5646
126.0648,402.9944
127.1212,404.5554
128.0016,405.9872
129.058,407.4199
130.1144,408.9837
131.1708,410.5486
132.0511,411.9839
133.1075,413.4201
134.1639,414.9878
135.0443,416.4256
136.1007,417.8643
137.1571,419.4347
138.0374,420.8749
139.0938,422.3159
140.1503,423.8889
141.0306,425.3314
142.087,426.775
143.1434,428.3505
144.0238,429.7956
145.0802,431.2415
146.1366,432.8197
147.0169,434.2671
148.0733,435.7155
149.1297,437.2962
150.0101,438.7463
151.0665,440.197
152.1229,441.7805
153.0032,443.2329
154.0596,444.6863
155.1161,446.2726
156.1725,447.8599
157.0528,449.3157
158.1092,450.7724
159.1656,452.3624
160.046,453.8208
161.1024,455.2801
162.1588,456.8729
163.0391,458.3338
164.0955,459.7953
165.1519,461.3908
166.0323,462.8542
167.0887,464.3186
168.1451,465.9169
169.0254,467.383
170.0818,468.8499
171.1383,470.4511
172.0186,471.9199
173.075,473.3895
174.1314,474.9936
175.0118,476.4651
176.0682,477.9374
177.1246,479.5447
178.0049,481.019
179.0613,482.4942
180.1177,484.1042
181.1742,485.7153
182.0545,487.1929
183.1109,488.6714
184.1673,490.2851
185.0476,491.7651
186.104,493.2459
187.1605,494.862
188.0408,496.3442
189.0972,497.8268
190.1536,499.445
191.034,500.9289
192.0904,502.4136
193.1468,504.0338
194.0271,505.5196
195.0835,507.0062
196.1399,508.6284
197.0203,510.1158
198.0767,511.6037
199.1331,513.227
200.0134,514.7153
201.0698,516.204
202.1263,517.8279
203.0066,519.3166
204.063,520.8053
205.1194,522.4293
206.1758,524.0528
207.0562,525.5404
208.1126,527.0277
209.169,528.6498
210.0493,530.136
211.1057,531.6215
212.1621,533.2415
213.0425,534.7257
214.0989,536.2082
215.1553,537.8236
216.0356,539.303
217.092,540.7798
218.1485,542.3883
219.0288,543.8616
220.0852,545.332
221.1416,546.9324
222.022,548.3962
223.0784,549.8569
224.1348,551.447
225.0151,552.9009
226.0715,554.3512
227.1279,555.9294
228.0083,557.3719
229.0647,558.8107
230.1211,560.3732
231.0014,561.7996
232.0578,563.2208
233.1143,564.7648
234.1707,566.302
235.051,567.7046
236.1074,569.1014
237.1638,570.6173
238.0442,571.9998
239.1006,573.3751
240.157,574.867
241.0373,576.2266
242.0937,577.578
243.1501,579.0434
244.0305,580.3778
245.0869,581.7035
246.1433,583.1394
247.0236,584.4462
248.08,585.742
249.1365,587.1445
250.0168,588.4193
251.0732,589.6845
252.1296,591.0536
253.01,592.2983
254.0664,593.5335
255.1228,594.8705
256.0031,596.0868
257.0595,597.2942
258.1159,598.6014
259.1723,599.8996
260.0527,601.0818
261.1091,602.2565
262.1655,603.5306
263.0458,604.6926
264.1023,605.8496
265.1587,607.1061
266.039,608.2546
267.0954,609.4005
268.1518,610.648
269.0322,611.7905
270.0886,612.9334
271.145,614.1812
272.0253,615.3272
273.0817,616.4766
274.1381,617.736
275.0185,618.8957
276.0749,620.0629
277.1313,621.3454
278.0116,622.5309
279.0681,623.7278
280.1245,625.0477
281.0048,626.2712
282.0612,627.5111
283.1176,628.8824
284.174,630.2763
285.0544,631.575
286.1108,632.8965
287.1672,634.365
288.0475,635.7371
289.1039,637.1386
290.1603,638.7008
291.0407,640.1675
292.0971,641.6711
293.1535,643.3556
294.0338,644.943
295.0903,646.5775
296.1467,648.4174
297.027,650.1602
298.0834,651.9642
299.1398,654.0063
300.0202,655.9509
301.0766,657.9794
302.133,660.2895
303.0133,662.5105
304.0697,664.8417
305.1261,667.5263
306.0065,670.1366
307.0629,672.9142
308.1193,676.1583
309.1757,679.6814
310.056,683.1942
311.1125,687.0522
312.1689,691.7469
313.0492,696.6157
314.1056,702.2854
315.162,709.7661
316.0424,718.4621
317.0988,730.4407
318.1552,750.4931
319.0355,778.7484
320.0919,806.6958
321.1483,828.4964
322.0287,843.0711
323.0851,854.0615
324.1415,863.3505
325.0218,870.0618
326.0783,875.4462
327.1347,880.2518
328.015,883.9087
329.0714,886.984
330.1278,889.8424
331.0082,892.1006
332.0646,894.0691
333.121,895.9636
334.0013,897.5078
335.0577,898.8937
336.1141,900.2628
337.1705,901.5043
338.0509,902.5487
339.1073,903.5109
340.1637,904.4839
341.044,905.3147
342.1005,906.0924
343.1569,906.8924
344.0372,907.585
345.0936,908.2405
346.15,908.9189
347.0304,909.5095
348.0868,910.0714
349.1432,910.6554
350.0235,911.1667
351.0799,911.6557
352.1363,912.1662
353.0167,912.6146
354.0731,913.0453
355.1295,913.497
356.0098,913.8955
357.0663,914.2801
358.1226,914.684
359.003,915.0424
360.0594,915.3882
361.1158,915.7534
362.1722,916.1065
363.0526,916.4201
364.109,916.724
365.1654,917.0468
366.0457,917.3334
367.1021,917.6125
368.1585,917.9086
369.0389,918.1722
370.0953,918.4294
371.1517,918.7023
372.032,918.946
373.0884,919.1844
374.1449,919.4374
375.0252,919.6643
376.0816,919.8858
377.138,920.1219
378.0184,920.333
379.0748,920.5401
380.1312,920.7607
381.0115,920.9585
382.0679,921.1525
383.1243,921.3593
384.0047,921.5452
385.0611,921.7278
386.1175,921.9223
387.1739,922.1126
388.0542,922.2836
389.1106,922.4523
390.1671,922.6332
391.0474,922.7946
392.1038,922.953
393.1602,923.1242
394.0406,923.2779
395.097,923.4287
396.1534,923.5903
397.0337,923.7358
398.0901,923.8786
399.1465,924.0329
400.0269,924.1713
401.0833,924.3074
402.1397,924.4536
403.02,924.5859
404.0764,924.7161
405.1329,924.8545
406.0132,924.9806
407.0696,925.1054
408.126,925.2387
409.0064,925.3588
410.0628,925.4772
411.1192,925.6045
412.1756,925.7303
413.0559,925.8433
414.1123,925.9556
415.1687,926.0768
416.0491,926.1859
417.1055,926.294
418.1619,926.4111
419.0422,926.5172
420.0986,926.6226
421.1551,926.7359
422.0354,926.8373
423.0918,926.9379
424.1482,927.0473
425.0286,927.1462
426.085,927.2439
427.1414,927.349
428.0217,927.4439
429.0781,927.5375
430.1345,927.6391
431.0149,927.7306
432.0713,927.8204
433.1277,927.9182
434.008,928.0072
435.0644,928.0947
436.1208,928.1888
437.0012,928.2736
438.0576,928.3577
439.114,928.4484
440.1704,928.5383
441.0508,928.6199
442.1072,928.7007
443.1636,928.7868
444.0439,928.8648
445.1003,928.9426
446.1567,929.0268
447.0371,929.1028
448.0935,929.1782
449.1499,929.2593
450.0302,929.3327
451.0866,929.4049
452.1431,929.4835
453.0234,929.5546
454.0798,929.6254
455.1362,929.7017
456.0166,929.7701
457.073,929.8383
458.1294,929.9124
459.0097,929.9799
460.0661,930.0463
461.1225,930.118
462.0029,930.1825
463.0593,930.2464
464.1157,930.3157
465.1721,930.3843
466.0524,930.4469
467.1088,930.5092
468.1653,930.5766
469.0456,930.6379
470.102,930.6981
471.1584,930.7627
472.0388,930.8216
473.0952,930.88
474.1516,930.9434
475.0319,931.0008
476.0883,931.0576
477.1447,931.1193
478.0251,931.1757
479.0815,931.2316
480.1379,931.2915
481.0182,931.3459
482.0746,931.4
483.131,931.4589
484.0114,931.5124
485.0678,931.5652
486.1242,931.6227
487.0046,931.6746
488.061,931.7259
489.1174,931.7812
490.1738,931.8363
491.0541,931.8869
492.1105,931.9372
493.1669,931.9912
494.0473,932.0403
495.1037,932.0891
496.1601,932.1422
497.0404,932.1907
498.0968,932.2378
499.1533,932.2889
500.0,932.3345