File: PMMA/Validation_Results/BUW-FZJ/BUW-FZJ_PMMA01_Gasification_q50_Temp_R4.csv
Time,T_back_1
[s],[K]
0.0,291.7
1.056409,291.7
2.112818,291.7
3.16923,291.7
4.04957,291.7
5.10598,291.7
6.16239,291.7
7.04273,291.7
8.09914,291.7
9.15554,291.702
10.0359,291.707
11.0923,291.716
12.1487,291.735
13.029,291.764
14.0855,291.808
15.1419,291.875
16.0222,291.958
17.0786,292.066
18.135,292.212
19.0154,292.374
20.0718,292.565
21.12818,292.808
22.0085,293.061
23.06493,293.344
24.1213,293.688
25.00168,294.032
26.0581,294.407
27.1145,294.847
28.1709,295.319
29.0512,295.778
30.1077,296.263
31.1641,296.818
32.0444,297.351
33.1008,297.906
34.1572,298.535
35.0376,299.131
36.094,299.746
37.1504,300.437
38.0307,301.087
39.0871,301.753
40.1435,302.496
41.0239,303.192
42.0803,303.9
43.1367,304.687
44.017,305.419
45.0735,306.163
46.12986,306.985
47.0102,307.748
48.06661,308.519
49.123,309.37
50.00336,310.157
51.0598,310.95
52.1162,311.823
53.1726,312.701
54.0529,313.512
55.1093,314.327
56.1657,315.219
57.0461,316.041
58.1025,316.865
59.1589,317.767
60.0392,318.595
61.0957,319.424
62.1521,320.329
63.0324,321.159
64.0888,321.988
65.1452,322.89
66.0256,323.716
67.082,324.539
68.1384,325.437
69.0187,326.26
70.0751,327.082
71.13154,327.98
72.0119,328.802
73.06829,329.623
74.1247,330.519
75.005,331.339
76.0614,332.158
77.1179,333.051
78.1743,333.942
79.0546,334.758
80.111,335.573
81.1674,336.46
82.0478,337.272
83.1042,338.082
84.1606,338.964
85.0409,339.771
86.0973,340.576
87.1537,341.452
88.0341,342.253
89.0905,343.051
90.1469,343.92
91.0272,344.715
92.0837,345.507
93.1401,346.368
94.0204,347.155
95.0768,347.939
96.13322,348.792
97.0136,349.571
98.06997,350.348
99.1264,351.191
100.007,351.962
101.063,352.73
102.12,353.564
103.176,354.395
104.056,355.153
105.1127,355.908
106.169,356.728
107.049,357.477
108.106,358.221
109.162,359.031
110.043,359.768
111.099,360.503
112.155,361.3
113.036,362.027
114.092,362.75
115.149,363.535
116.029,364.25
117.085,364.961
118.142,365.732
119.022,366.435
120.078,367.133
121.1349,367.891
122.015,368.58
123.072,369.264
124.128,370.006
125.0084,370.68
126.065,371.349
127.121,372.073
128.002,372.732
129.058,373.384
130.114,374.088
131.171,374.786
132.051,375.421
133.108,376.053
134.164,376.738
135.044,377.361
136.101,377.9822
137.1571,378.656
138.037,379.271
139.094,379.883
140.15,380.549
141.0306,381.157
142.087,381.764
143.143,382.423
144.024,383.026
145.08,383.627
146.137,384.281
147.017,384.88
148.073,385.478
149.13,386.128
150.01,386.724
151.066,387.319
152.1229,387.968
153.003,388.561
154.06,389.155
155.116,389.803
156.172,390.45
157.053,391.042
158.109,391.636
159.166,392.283
160.046,392.877
161.102,393.471
162.159,394.118
163.039,394.713
164.096,395.309
165.152,395.96
166.032,396.557
167.089,397.155
168.1451,397.808
169.025,398.409
170.082,399.01
171.138,399.668
172.0186,400.272
173.075,400.878
174.131,401.541
175.012,402.15
176.068,402.761
177.125,403.43
178.005,404.045
179.061,404.663
180.118,405.339
181.174,406.018
182.054,406.644
183.1109,407.272
184.1673,407.9598
185.048,408.593
186.104,409.23
187.16,409.929
188.0408,410.572
189.097,411.22
190.154,411.93
191.034,412.584
192.09,413.243
193.147,413.967
194.027,414.634
195.084,415.306
196.14,416.045
197.02,416.728
198.077,417.415
199.1331,418.171
200.013,418.87
201.07,419.576
202.126,420.352
203.0066,421.07
204.063,421.795
205.119,422.595
206.176,423.405
207.056,424.154
208.113,424.91
209.169,425.741
210.049,426.509
211.106,427.283
212.162,428.133
213.042,428.919
214.099,429.711
215.1553,430.581
216.036,431.386
217.092,432.196
218.148,433.089
219.0288,433.913
220.085,434.745
221.142,435.66
222.022,436.506
223.078,437.36
224.135,438.3
225.015,439.169
226.072,440.047
227.128,441.014
228.008,441.909
229.065,442.812
230.1211,443.808
231.001,444.731
232.058,445.662
233.114,446.6901
234.171,447.7295
235.051,448.693
236.107,449.668
237.164,450.743
238.044,451.74
239.101,452.75
240.157,453.865
241.037,454.9
242.094,455.949
243.15,457.108
244.03,458.185
245.087,459.278
246.1433,460.486
247.024,461.611
248.08,462.753
249.136,464.018
250.0168,465.198
251.073,466.397
252.13,467.728
253.01,468.97
254.066,470.236
255.123,471.646
256.003,472.966
257.06,474.316
258.116,475.824
259.172,477.367
260.053,478.812
261.109,480.289
262.1655,481.935
263.046,483.475
264.102,485.05
265.159,486.8039
266.039,488.447
267.095,490.126
268.152,491.999
269.032,493.753
270.089,495.547
271.145,497.549
272.025,499.426
273.082,501.346
274.138,503.49
275.018,505.501
276.075,507.559
277.1313,509.856
278.012,512.014
279.068,514.2237
280.124,516.693
281.0048,519.012
282.061,521.391
283.118,524.056
284.174,526.79
285.054,529.37
286.111,532.0152
287.167,534.979
288.048,537.775
289.104,540.649
290.16,543.889
291.041,546.953
292.097,550.135
293.1535,553.749
294.034,557.202
295.09,560.867
296.147,565.1
297.027,569.314
298.083,573.986
299.14,578.88
300.02,582.754
301.077,586.198
302.133,589.575
303.013,592.418
304.07,595.072
305.126,597.787
306.006,600.049
307.063,602.18
308.1193,604.354
309.1757,606.406
310.056,608.193
311.112,609.872
312.169,611.617
313.0492,613.143
314.106,614.591
315.162,616.107
316.042,617.435
317.099,618.712
318.155,620.047
319.036,621.231
320.092,622.371
321.148,623.576
322.029,624.646
323.085,625.689
324.1415,626.797
325.022,627.788
326.078,628.764
327.135,629.806
328.015,630.742
329.071,631.664
330.128,632.664
331.008,633.569
332.065,634.459
333.121,635.428
334.001,636.314
335.058,637.19
336.114,638.139
337.171,639.0942
338.051,639.964
339.107,640.833
340.1637,641.781
341.044,642.66
342.1,643.532
343.157,644.485
344.0372,645.369
345.094,646.252
346.15,647.219
347.03,648.119
348.087,649.02
349.143,650.008
350.024,650.921
351.08,651.847
352.136,652.858
353.017,653.797
354.073,654.752
355.1295,655.798
356.01,656.776
357.066,657.753
358.123,658.85
359.003,659.87
360.0594,660.891
361.116,662.033
362.172,663.204
363.053,664.287
364.109,665.3982
365.165,666.644
366.046,667.807
367.102,668.98
368.159,670.338
369.039,671.578
370.095,672.864
371.1517,674.359
372.032,675.71
373.088,677.167
374.145,678.828
375.0252,680.334
376.082,682.053
377.138,683.948
378.018,685.702
379.075,687.747
380.131,689.935
381.012,692.313
382.068,694.736
383.124,697.665
384.005,700.846
385.061,704.179
386.117,708.967
387.1739,714.072
388.054,720.763
389.111,728.807
390.167,742.277
391.0474,763.197
392.104,792.907
393.16,817.728
394.041,831.904
395.097,841.514
396.153,849.118
397.034,854.399
398.09,858.549
399.147,862.262
400.027,865.11
401.083,867.562
402.1397,869.909
403.02,871.83
404.076,873.563
405.133,875.289
406.0132,876.744
407.07,878.09
408.126,879.461
409.006,880.639
410.063,881.749
411.119,882.893
412.176,883.978
413.056,884.925
414.112,885.822
415.169,886.762
416.049,887.588
417.105,888.378
418.1619,889.209
419.042,889.942
420.099,890.6439
421.155,891.392
422.0354,892.04
423.092,892.682
424.148,893.342
425.029,893.941
426.085,894.506
427.141,895.1105
428.022,895.648
429.078,896.159
430.135,896.713
431.015,897.194
432.071,897.661
433.128,898.166
434.008,898.601
435.064,899.029
436.121,899.491
437.001,899.895
438.0576,900.277
439.114,900.699
440.17,901.108
441.051,901.468
442.107,901.806
443.164,902.178
444.044,902.52
445.1,902.842
446.157,903.184
447.037,903.488
448.093,903.776
449.1499,904.092
450.03,904.374
451.087,904.661
452.143,904.954
453.0234,905.216
454.08,905.471
455.136,905.744
456.017,905.981
457.073,906.213
458.129,906.466
459.01,906.693
460.066,906.913
461.123,907.148
462.003,907.36
463.059,907.565
464.116,907.784
465.1721,907.998
466.052,908.19
467.109,908.377
468.165,908.577
469.0456,908.757
470.102,908.932
471.158,909.119
472.039,909.288
473.095,909.452
474.152,909.628
475.032,909.786
476.088,909.939
477.145,910.105
478.025,910.253
479.081,910.398
480.1379,910.553
481.018,910.6929
482.075,910.83
483.131,910.977
484.0114,911.108
485.0678,911.236
486.124,911.375
487.005,911.5
488.061,911.622
489.117,911.753
490.174,911.881
491.054,911.996
492.111,912.11
493.167,912.231
494.047,912.341
495.104,912.449
496.1601,912.565
497.04,912.669
498.097,912.771
499.153,912.88
500.0,912.976