File: PMMA/Validation_Results/BUW-FZJ/BUW-FZJ_ApproachA_Gasification_q50_Mass_R5.csv
Time,Mass
[s],[g]
0.0,27.8206
1.0564,27.8206
2.1128,27.8206
3.1692,27.8205
4.0496,27.8205
5.106,27.8205
6.1624,27.8204
7.0427,27.8203
8.0991,27.8201
9.1555,27.8198
10.0359,27.8194
11.0923,27.8188
12.1487,27.818
13.029,27.817
14.0855,27.8157
15.1419,27.814
16.0222,27.8121
17.0786,27.81
18.135,27.8073
19.0154,27.8045
20.0718,27.8014
21.1282,27.7977
22.0085,27.794
23.0649,27.79
24.1213,27.7852
25.0017,27.7804
26.0581,27.7751
27.1145,27.7687
28.1709,27.7615
29.0512,27.7542
30.1077,27.7459
31.1641,27.7358
32.0444,27.7253
33.1008,27.7135
34.1572,27.6991
35.0376,27.6844
36.094,27.6682
37.1504,27.6486
38.0307,27.6289
39.0871,27.6074
40.1435,27.5821
41.0239,27.557
42.0803,27.5303
43.1367,27.4992
44.017,27.469
45.0735,27.4371
46.1299,27.4006
47.0102,27.3656
48.0666,27.3292
49.123,27.2879
50.0034,27.2487
51.0598,27.2082
52.1162,27.1626
53.1726,27.1157
54.0529,27.0716
55.1093,27.0265
56.1657,26.9761
57.0461,26.929
58.1025,26.8809
59.1589,26.8276
60.0392,26.7778
61.0957,26.7272
62.1521,26.6713
63.0324,26.6192
64.0888,26.5665
65.1452,26.5082
66.0256,26.4542
67.082,26.3995
68.1384,26.3392
69.0187,26.2834
70.0751,26.2271
71.1315,26.1651
72.0119,26.1078
73.0683,26.05
74.1247,25.9864
75.005,25.9277
76.0614,25.8686
77.1179,25.8037
78.1743,25.7383
79.0546,25.678
80.111,25.6174
81.1674,25.5508
82.0478,25.4895
83.1042,25.4279
84.1606,25.3603
85.0409,25.2981
86.0973,25.2356
87.1537,25.1671
88.0341,25.104
89.0905,25.0407
90.1469,24.9714
91.0272,24.9077
92.0837,24.8437
93.1401,24.7736
94.0204,24.7092
95.0768,24.6446
96.1332,24.5739
97.0136,24.5089
98.07,24.4438
99.1264,24.3725
100.0067,24.307
101.0631,24.2413
102.1195,24.1695
103.176,24.0975
104.0563,24.0314
105.1127,23.9651
106.1691,23.8927
107.0494,23.8262
108.1059,23.7595
109.1623,23.6866
110.0426,23.6197
111.099,23.5527
112.1554,23.4794
113.0358,23.4121
114.0922,23.3447
115.1486,23.2711
116.0289,23.2035
117.0853,23.1358
118.1417,23.0618
119.0221,22.9939
120.0785,22.9259
121.1349,22.8516
122.0152,22.7835
123.0716,22.7152
124.1281,22.6406
125.0084,22.5721
126.0648,22.5036
127.1212,22.4287
128.0016,22.36
129.058,22.2912
130.1144,22.2161
131.1708,22.1409
132.0511,22.0718
133.1075,22.0027
134.1639,21.9273
135.0443,21.858
136.1007,21.7887
137.1571,21.713
138.0374,21.6435
139.0938,21.5739
140.1503,21.4979
141.0306,21.4282
142.087,21.3585
143.1434,21.2823
144.0238,21.2123
145.0802,21.1423
146.1366,21.0659
147.0169,20.9958
148.0733,20.9256
149.1297,20.8489
150.0101,20.7785
151.0665,20.7081
152.1229,20.6312
153.0032,20.5606
154.0596,20.49
155.1161,20.4128
156.1725,20.3356
157.0528,20.2647
158.1092,20.1938
159.1656,20.1163
160.046,20.0452
161.1024,19.974
162.1588,19.8963
163.0391,19.825
164.0955,19.7536
165.1519,19.6756
166.0323,19.604
167.0887,19.5324
168.1451,19.4541
169.0254,19.3823
170.0818,19.3104
171.1383,19.2319
172.0186,19.1598
173.075,19.0877
174.1314,19.0089
175.0118,18.9365
176.0682,18.8641
177.1246,18.7851
178.0049,18.7125
179.0613,18.6398
180.1177,18.5604
181.1742,18.4809
182.0545,18.4079
183.1109,18.3348
184.1673,18.255
185.0476,18.1818
186.104,18.1084
187.1605,18.0283
188.0408,17.9547
189.0972,17.881
190.1536,17.8005
191.034,17.7266
192.0904,17.6526
193.1468,17.5718
194.0271,17.4975
195.0835,17.4232
196.1399,17.342
197.0203,17.2674
198.0767,17.1927
199.1331,17.1111
200.0134,17.0361
201.0698,16.9611
202.1263,16.8791
203.0066,16.8037
204.063,16.7282
205.1194,16.6458
206.1758,16.5631
207.0562,16.4873
208.1126,16.4113
209.169,16.3282
210.0493,16.2519
211.1057,16.1755
212.1621,16.092
213.0425,16.0153
214.0989,15.9384
215.1553,15.8544
216.0356,15.7773
217.092,15.7
218.1485,15.6154
219.0288,15.5378
220.0852,15.46
221.1416,15.375
222.022,15.2969
223.0784,15.2186
224.1348,15.133
225.0151,15.0544
226.0715,14.9756
227.1279,14.8894
228.0083,14.8103
229.0647,14.7309
230.1211,14.6441
231.0014,14.5644
232.0578,14.4844
233.1143,14.3971
234.1707,14.3095
235.051,14.229
236.1074,14.1483
237.1638,14.0601
238.0442,13.9791
239.1006,13.8978
240.157,13.8089
241.0373,13.7273
242.0937,13.6454
243.1501,13.5558
244.0305,13.4735
245.0869,13.391
246.1433,13.3007
247.0236,13.2178
248.08,13.1346
249.1365,13.0436
250.0168,12.96
251.0732,12.8761
252.1296,12.7843
253.01,12.6999
254.0664,12.6154
255.1228,12.5229
256.0031,12.4378
257.0595,12.3526
258.1159,12.2593
259.1723,12.1657
260.0527,12.0797
261.1091,11.9934
262.1655,11.899
263.0458,11.8123
264.1023,11.7252
265.1587,11.6299
266.039,11.5423
267.0954,11.4544
268.1518,11.3582
269.0322,11.2698
270.0886,11.1811
271.145,11.0841
272.0253,10.9948
273.0817,10.9053
274.1381,10.8074
275.0185,10.7172
276.0749,10.6268
277.1313,10.5279
278.0116,10.4369
279.0681,10.3455
280.1245,10.2455
281.0048,10.1535
282.0612,10.0611
283.1176,9.9599
284.174,9.8584
285.0544,9.7649
286.1108,9.671
287.1672,9.5682
288.0475,9.4735
289.1039,9.3785
290.1603,9.2743
291.0407,9.1784
292.0971,9.082
293.1535,8.9763
294.0338,8.879
295.0903,8.7812
296.1467,8.674
297.027,8.5752
298.0834,8.4759
299.1398,8.3669
300.0202,8.2664
301.0766,8.1653
302.133,8.0543
303.0133,7.9521
304.0697,7.8492
305.1261,7.7363
306.0065,7.6322
307.0629,7.5274
308.1193,7.4123
309.1757,7.2965
310.056,7.1896
311.1125,7.0821
312.1689,6.9641
313.0492,6.8551
314.1056,6.7455
315.162,6.6252
316.0424,6.5141
317.0988,6.4023
318.1552,6.2797
319.0355,6.1666
320.0919,6.0528
321.1483,5.9278
322.0287,5.8126
323.0851,5.6967
324.1415,5.5695
325.0218,5.4524
326.0783,5.3345
327.1347,5.2053
328.015,5.0862
329.0714,4.9665
330.1278,4.8353
331.0082,4.7144
332.0646,4.593
333.121,4.46
334.0013,4.3376
335.0577,4.2146
336.1141,4.08
337.1705,3.9448
338.0509,3.8205
339.1073,3.6958
340.1637,3.5593
341.044,3.4339
342.1005,3.3082
343.1569,3.1708
344.0372,3.0446
345.0936,2.9184
346.15,2.7805
347.0304,2.6537
348.0868,2.527
349.1432,2.3886
350.0235,2.262
351.0799,2.1355
352.1363,1.9978
353.0167,1.8718
354.0731,1.746
355.1295,1.6092
356.0098,1.4844
357.0663,1.361
358.1226,1.2275
359.003,1.1062
360.0594,0.9863
361.1158,0.8566
362.1722,0.7285
363.0526,0.6124
364.109,0.4994
365.1654,0.3798
366.0457,0.2748
367.1021,0.1788
368.1585,0.0902
369.0389,0.0301
370.0953,0.0038
371.1517,0.0001
372.032,-0.0
373.0884,-0.0
374.1449,-0.0
375.0252,-0.0
376.0816,-0.0
377.138,-0.0
378.0184,-0.0
379.0748,-0.0
380.1312,-0.0
381.0115,-0.0
382.0679,-0.0
383.1243,-0.0
384.0047,-0.0
385.0611,-0.0
386.1175,-0.0
387.1739,-0.0
388.0542,-0.0
389.1106,-0.0
390.1671,-0.0
391.0474,-0.0
392.1038,-0.0
393.1602,-0.0
394.0406,-0.0
395.097,-0.0
396.1534,-0.0
397.0337,-0.0
398.0901,-0.0
399.1465,-0.0
400.0269,-0.0
401.0833,-0.0
402.1397,-0.0
403.02,-0.0
404.0764,-0.0
405.1329,-0.0
406.0132,-0.0
407.0696,-0.0
408.126,-0.0
409.0064,-0.0
410.0628,-0.0
411.1192,-0.0
412.1756,-0.0
413.0559,-0.0
414.1123,-0.0
415.1687,-0.0
416.0491,-0.0
417.1055,-0.0
418.1619,-0.0
419.0422,-0.0
420.0986,-0.0
421.1551,-0.0
422.0354,-0.0
423.0918,-0.0
424.1482,-0.0
425.0286,-0.0
426.085,-0.0
427.1414,-0.0
428.0217,-0.0
429.0781,-0.0
430.1345,-0.0
431.0149,-0.0
432.0713,-0.0
433.1277,-0.0
434.008,-0.0
435.0644,-0.0
436.1208,-0.0
437.0012,-0.0
438.0576,-0.0
439.114,-0.0
440.1704,-0.0
441.0508,-0.0
442.1072,-0.0
443.1636,-0.0
444.0439,-0.0
445.1003,-0.0
446.1567,-0.0
447.0371,-0.0
448.0935,-0.0
449.1499,-0.0
450.0302,-0.0
451.0866,-0.0
452.1431,-0.0
453.0234,-0.0
454.0798,-0.0
455.1362,-0.0
456.0166,-0.0
457.073,-0.0
458.1294,-0.0
459.0097,-0.0
460.0661,-0.0
461.1225,-0.0
462.0029,-0.0
463.0593,-0.0
464.1157,-0.0
465.1721,-0.0
466.0524,-0.0
467.1088,-0.0
468.1653,-0.0
469.0456,-0.0
470.102,-0.0
471.1584,-0.0
472.0388,-0.0
473.0952,-0.0
474.1516,-0.0
475.0319,-0.0
476.0883,-0.0
477.1447,-0.0
478.0251,-0.0
479.0815,-0.0
480.1379,-0.0
481.0182,-0.0
482.0746,-0.0
483.131,-0.0
484.0114,-0.0
485.0678,-0.0
486.1242,-0.0
487.0046,-0.0
488.061,-0.0
489.1174,-0.0
490.1738,-0.0
491.0541,-0.0
492.1105,-0.0
493.1669,-0.0
494.0473,-0.0
495.1037,-0.0
496.1601,-0.0
497.0404,-0.0
498.0968,-0.0
499.1533,-0.0
500.0,-0.0