File: PMMA/Validation_Results/BUW-FZJ/BUW-FZJ_ApproachA_Gasification_q50_Temp_R1.csv
Time,T_back_1
[s],[K]
0.0,290.65
1.056409,290.65
2.112818,290.65
3.16923,290.65
4.04957,290.65
5.10598,290.65
6.16239,290.65
7.04273,290.65
8.09914,290.65
9.15554,290.65
10.0359,290.65
11.0923,290.65
12.1487,290.65
13.029,290.65
14.0855,290.651
15.1419,290.651
16.0222,290.653
17.0786,290.655
18.135,290.66
19.0154,290.666
20.0718,290.675
21.12818,290.689
22.0085,290.706
23.06493,290.729
24.1213,290.761
25.00168,290.798
26.0581,290.843
27.1145,290.903
28.1709,290.976
29.0512,291.054
30.1077,291.145
31.1641,291.259
32.0444,291.378
33.1008,291.513
34.1572,291.677
35.0376,291.845
36.094,292.03
37.1504,292.251
38.0307,292.473
39.0871,292.714
40.1435,292.998
41.0239,293.278
42.0803,293.579
43.1367,293.928
44.017,294.269
45.0735,294.631
46.12986,295.048
47.0102,295.451
48.06661,295.875
49.123,296.36
50.00336,296.825
51.0598,297.31
52.1162,297.862
53.1726,298.436
54.0529,298.983
55.1093,299.55
56.1657,300.189
57.0461,300.794
58.1025,301.417
59.1589,302.118
60.0392,302.778
61.0957,303.456
62.1521,304.215
63.0324,304.928
64.0888,305.658
65.1452,306.472
66.0256,307.234
67.082,308.012
68.1384,308.877
69.0187,309.685
70.0751,310.507
71.13154,311.42
72.0119,312.271
73.06829,313.135
74.1247,314.092
75.005,314.982
76.0614,315.884
77.1179,316.882
78.1743,317.893
79.0546,318.832
80.111,319.781
81.1674,320.829
82.0478,321.8
83.1042,322.781
84.1606,323.862
85.0409,324.862
86.0973,325.872
87.1537,326.984
88.0341,328.012
89.0905,329.049
90.1469,330.189
91.0272,331.243
92.0837,332.304
93.1401,333.471
94.0204,334.547
95.0768,335.632
96.13322,336.822
97.0136,337.921
98.06997,339.027
99.1264,340.24
100.007,341.359
101.063,342.485
102.12,343.72
103.176,344.962
104.056,346.106
105.1127,347.257
106.169,348.519
107.049,349.681
108.106,350.849
109.162,352.129
110.043,353.307
111.099,354.492
112.155,355.789
113.036,356.984
114.092,358.183
115.149,359.498
116.029,360.708
117.085,361.922
118.142,363.253
119.022,364.477
120.078,365.706
121.1349,367.052
122.015,368.29
123.072,369.533
124.128,370.894
125.0084,372.146
126.065,373.403
127.121,374.779
128.002,376.044
129.058,377.314
130.114,378.704
131.171,380.098
132.051,381.381
133.108,382.669
134.164,384.078
135.044,385.373
136.101,386.673
137.1571,388.096
138.037,389.404
139.094,390.716
140.15,392.153
141.0306,393.473
142.087,394.798
143.143,396.248
144.024,397.581
145.08,398.918
146.137,400.381
147.017,401.727
148.073,403.076
149.13,404.553
150.01,405.91
151.066,407.272
152.1229,408.762
153.003,410.132
154.06,411.5055
155.116,413.009
156.172,414.517
157.053,415.903
158.109,417.293
159.166,418.814
160.046,420.213
161.102,421.616
162.159,423.15
163.039,424.562
164.096,425.976
165.152,427.525
166.032,428.948
167.089,430.376
168.1451,431.937
169.025,433.373
170.082,434.814
171.138,436.389
172.0186,437.838
173.075,439.29
174.131,440.879
175.012,442.341
176.068,443.806
177.125,445.409
178.005,446.883
179.061,448.361
180.118,449.978
181.174,451.601
182.054,453.0924
183.1109,454.588
184.1673,456.225
185.048,457.73
186.104,459.239
187.16,460.891
188.0408,462.409
189.097,463.932
190.154,465.599
191.034,467.131
192.09,468.668
193.147,470.35
194.027,471.896
195.084,473.4479
196.14,475.1457
197.02,476.707
198.077,478.274
199.1331,479.988
200.013,481.565
201.07,483.146
202.126,484.878
203.0066,486.47
204.063,488.068
205.119,489.817
206.176,491.573
207.056,493.188
208.113,494.808
209.169,496.5833
210.049,498.216
211.106,499.855
212.162,501.65
213.042,503.302
214.099,504.959
215.1553,506.7736
216.036,508.444
217.092,510.121
218.148,511.958
219.0288,513.649
220.085,515.346
221.142,517.207
222.022,518.918
223.078,520.637
224.135,522.52
225.015,524.253
226.072,525.994
227.128,527.901
228.008,529.656
229.065,531.418
230.1211,533.349
231.001,535.126
232.058,536.909
233.114,538.861
234.171,540.82
235.051,542.621
236.107,544.43
237.164,546.408
238.044,548.227
239.101,550.051
240.157,552.046
241.037,553.88
242.094,555.7185
243.15,557.73
244.03,559.578
245.087,561.428
246.1433,563.447
247.024,565.3
248.08,567.155
249.136,569.18
250.0168,571.037
251.073,572.896
252.13,574.924
253.01,576.784
254.066,578.643
255.123,580.669
256.003,582.526
257.06,584.381
258.116,586.402
259.172,588.421
260.053,590.267
261.109,592.109
262.1655,594.112
263.046,595.944
264.102,597.772
265.159,599.762
266.039,601.582
267.095,603.397
268.152,605.375
269.032,607.185
270.089,608.992
271.145,610.961
272.025,612.765
273.082,614.568
274.138,616.535
275.018,618.3395
276.075,620.147
277.1313,622.122
278.012,623.939
279.068,625.761
280.124,627.759
281.0048,629.601
282.061,631.454
283.118,633.493
284.174,635.55
285.054,637.456
286.111,639.382
287.167,641.512
288.048,643.495
289.104,645.506
290.16,647.736
291.041,649.824
292.097,651.96
293.1535,654.344
294.034,656.575
295.09,658.871
296.147,661.438
297.027,663.879
298.083,666.398
299.14,669.244
300.02,671.965
301.077,674.8109
302.133,678.006
303.013,680.994
304.07,684.2943
305.126,688.152
306.006,691.884
307.063,696.016
308.1193,700.8854
309.1757,706.503
310.056,711.708
311.112,718.365
312.169,727.077
313.0492,737.134
314.106,750.151
315.162,770.582
316.042,790.726
317.099,796.84
318.155,800.699
319.036,804.864
320.092,808.62
321.148,812.257
322.029,815.219
323.085,817.887
324.1415,820.519
325.022,822.724
326.078,824.752
327.135,826.798
328.015,828.538
329.071,830.167
330.128,831.831
331.008,833.272
332.065,834.634
333.121,836.04
334.001,837.261
335.058,838.425
336.114,839.635
337.171,840.787
338.051,841.799
339.107,842.767
340.1637,843.781
341.044,844.675
342.1,845.537
343.157,846.444
344.0372,847.247
345.094,848.021
346.15,848.841
347.03,849.572
348.087,850.282
349.143,851.032
350.024,851.7
351.08,852.3456
352.136,853.031
353.017,853.643
354.073,854.239
355.1295,854.8706
356.01,855.435
357.066,855.986
358.123,856.571
359.003,857.094
360.0594,857.6064
361.116,858.151
362.172,858.6831
363.053,859.159
364.109,859.6237
365.165,860.12
366.046,860.566
367.102,861.002
368.159,861.469
369.039,861.888
370.095,862.297
371.1517,862.7378
372.032,863.13
373.088,863.521
374.145,863.932
375.0252,864.307
376.082,864.671
377.138,865.064
378.018,865.4173
379.075,865.764
380.131,866.137
381.012,866.471
382.068,866.8009
383.124,867.154
384.005,867.473
385.061,867.787
386.117,868.124
387.1739,868.455
388.054,868.752
389.111,869.048
390.167,869.364
391.0474,869.65
392.104,869.934
393.16,870.238
394.041,870.514
395.097,870.785
396.153,871.079
397.034,871.342
398.09,871.602
399.147,871.883
400.027,872.134
401.083,872.385
402.1397,872.654
403.02,872.894
404.076,873.135
405.133,873.393
406.0132,873.626
407.07,873.855
408.126,874.105
409.006,874.329
410.063,874.55
411.119,874.787
412.176,875.023
413.056,875.2372
414.112,875.447
415.169,875.673
416.049,875.8788
417.105,876.083
418.1619,876.3
419.042,876.497
420.099,876.694
421.155,876.905
422.0354,877.095
423.092,877.285
424.148,877.489
425.029,877.673
426.085,877.8556
427.141,878.054
428.022,878.233
429.078,878.408
430.135,878.598
431.015,878.772
432.071,878.945
433.128,879.128
434.008,879.296
435.064,879.462
436.121,879.641
437.001,879.803
438.0576,879.966
439.114,880.139
440.17,880.31
441.051,880.466
442.107,880.621
443.164,880.788
444.044,880.942
445.1,881.09
446.157,881.25
447.037,881.399
448.093,881.547
449.1499,881.705
450.03,881.847
451.087,881.988
452.143,882.142
453.0234,882.2821
454.08,882.421
455.136,882.57
456.017,882.706
457.073,882.839
458.129,882.984
459.01,883.118
460.066,883.248
461.123,883.389
462.003,883.5186
463.059,883.646
464.116,883.784
465.1721,883.919
466.052,884.043
467.109,884.167
468.165,884.301
469.0456,884.421
470.102,884.5405
471.158,884.669
472.039,884.788
473.095,884.905
474.152,885.032
475.032,885.148
476.088,885.261
477.145,885.383
478.025,885.495
479.081,885.607
480.1379,885.728
481.018,885.839
482.075,885.947
483.131,886.062
484.0114,886.1695
485.0678,886.277
486.124,886.393
487.005,886.497
488.061,886.6
489.117,886.712
490.174,886.823
491.054,886.925
492.111,887.025
493.167,887.134
494.047,887.235
495.104,887.334
496.1601,887.439
497.04,887.535
498.097,887.632
499.153,887.736
500.0,887.829