File: PMMA/Validation_Results/BUW-FZJ/BUW-FZJ_ApproachA_Gasification_q50_MLR_R3.csv
Time,MLR
[s],[g/m2/s]
0.0,0.0
1.056409,7.79859e-05
2.112818,0.000415521
3.16923,0.0017926
4.04957,0.00481684
5.10598,0.0106889
6.16239,0.0215459
7.04273,0.03681348
8.09914,0.0586477
9.15554,0.0908208
10.0359,0.1287488
11.0923,0.175525
12.1487,0.236087
13.029,0.299704
14.0855,0.370209
15.1419,0.452813
16.0222,0.531916
17.0786,0.612515
18.135,0.700432
19.0154,0.780231
20.0718,0.8593773
21.12818,0.9464183
22.0085,1.029159
23.06493,1.11828
24.1213,1.22703
25.00168,1.3417
26.0581,1.47602
27.1145,1.64876
28.1709,1.85361
29.0512,2.072148
30.1077,2.323382
31.1641,2.634019
32.0444,2.95197
33.1008,3.30163
34.1572,3.71491
35.0376,4.11955
36.094,4.54576
37.1504,5.02909
38.0307,5.48416
39.0871,5.94632
40.1435,6.45302
41.0239,6.91566
42.0803,7.37271
43.1367,7.86172
44.017,8.29874
45.0735,8.722584
46.12986,9.16904
47.0102,9.56284
48.06661,9.94068
49.123,10.3353
50.00336,10.6809
51.0598,11.0109
52.1162,11.3541
53.1726,11.6803
54.0529,11.9652
55.1093,12.2366
56.1657,12.5188
57.0461,12.7652
58.1025,13.0001
59.1589,13.2446
60.0392,13.4583
61.0957,13.6624
62.1521,13.8749
63.0324,14.0611
64.0888,14.2391
65.1452,14.4248
66.0256,14.5877
67.082,14.7437
68.1384,14.9066
69.0187,15.0498
70.0751,15.187
71.13154,15.3305
72.0119,15.4568
73.06829,15.5779
74.1247,15.7048
75.005,15.8165
76.0614,15.9238
77.1179,16.0363
78.1743,16.1442
79.0546,16.2393
80.111,16.3307
81.1674,16.4266
82.0478,16.5112
83.1042,16.5926
84.1606,16.6781
85.0409,16.7535
86.0973,16.8262
87.1537,16.9026
88.0341,16.9701
89.0905,17.035
90.1469,17.1033
91.0272,17.1636
92.0837,17.2218
93.1401,17.283
94.0204,17.3371
95.0768,17.3894
96.13322,17.4444
97.0136,17.4931
98.06997,17.54
99.1264,17.5895
100.007,17.6333
101.063,17.6757
102.12,17.7203
103.176,17.7634
104.056,17.8015
105.1127,17.842
106.169,17.8867
107.049,17.9241
108.106,17.9572
109.162,17.9969
110.043,18.0281
111.099,18.06435
112.155,18.0987
113.036,18.1301
114.092,18.1612
115.149,18.1946
116.029,18.2255
117.085,18.253
118.142,18.287
119.022,18.3163
120.078,18.3435
121.1349,18.3726
122.015,18.3996
123.072,18.4242
124.128,18.4551
125.0084,18.48
126.065,18.5061
127.121,18.5337
128.002,18.5589
129.058,18.5845
130.114,18.6115
131.171,18.636
132.051,18.6624
133.108,18.6873
134.164,18.7136
135.044,18.7382
136.101,18.7615
137.1571,18.7885
138.037,18.8121
139.094,18.8347
140.15,18.8637
141.0306,18.88392
142.087,18.9104
143.143,18.9363
144.024,18.9598
145.08,18.9843
146.137,19.0129
147.017,19.0335
148.073,19.0607
149.13,19.0865
150.01,19.1104
151.066,19.1363
152.1229,19.1639
153.003,19.1896
154.06,19.2152
155.116,19.24169
156.172,19.2694
157.053,19.2952
158.109,19.3241
159.166,19.3491
160.046,19.3787
161.102,19.4051
162.159,19.4349
163.039,19.4615
164.096,19.4902
165.152,19.5216
166.032,19.5465
167.089,19.5782
168.1451,19.609
169.025,19.6373
170.082,19.6681
171.138,19.7014
172.0186,19.73242
173.075,19.76343
174.131,19.7956
175.012,19.8253
176.068,19.8591
177.125,19.8946
178.005,19.93
179.061,19.9676
180.118,20.0001
181.174,20.0391
182.054,20.071
183.1109,20.1045
184.1673,20.14304
185.048,20.178
186.104,20.2122
187.16,20.2554
188.0408,20.2884
189.097,20.3281
190.154,20.3701
191.034,20.4081
192.09,20.4477
193.147,20.491
194.027,20.5301
195.084,20.5704
196.14,20.6131
197.02,20.6567
198.077,20.7001
199.1331,20.7436
200.013,20.7891
201.07,20.8334
202.126,20.8834
203.0066,20.9252
204.063,20.9727
205.119,21.02069
206.176,21.0753
207.056,21.1182
208.113,21.1679
209.169,21.2215
210.049,21.2698
211.106,21.3206
212.162,21.3758
213.042,21.4226
214.099,21.4768
215.1553,21.5328
216.036,21.5831
217.092,21.6372
218.148,21.6973
219.0288,21.7543
220.085,21.8065
221.142,21.8669
222.022,21.9248
223.078,21.97662
224.135,22.0413
225.015,22.09927
226.072,22.1582
227.128,22.2197
228.008,22.2825
229.065,22.3404
230.1211,22.4105
231.001,22.4779
232.058,22.5466
233.114,22.61355
234.171,22.6807
235.051,22.7364
236.107,22.7995
237.164,22.8709
238.044,22.93282
239.101,23.0042
240.157,23.0711
241.037,23.1416
242.094,23.2082
243.15,23.28006
244.03,23.3532
245.087,23.42343
246.1433,23.503
247.024,23.5743
248.08,23.64745
249.136,23.73
250.0168,23.8051
251.073,23.8819
252.13,23.9608
253.01,24.0421
254.066,24.1228
255.123,24.211
256.003,24.2938
257.06,24.3757
258.116,24.4731
259.172,24.5739
260.053,24.6617
261.109,24.7521
262.1655,24.8498
263.046,24.9414
264.102,25.0339
265.159,25.1377
266.039,25.2364
267.095,25.3427
268.152,25.4601
269.032,25.5679
270.089,25.67688
271.145,25.7989
272.025,25.9156
273.082,26.0313
274.138,26.1611
275.018,26.2827
276.075,26.41538
277.1313,26.5544
278.012,26.6844
279.068,26.8273
280.124,26.9955
281.0048,27.155
282.061,27.3056
283.118,27.4731
284.174,27.6398
285.054,27.8003
286.111,27.9807
287.167,28.1716
288.048,28.3418
289.104,28.5114
290.16,28.7166
291.041,28.9017
292.097,29.0806
293.1535,29.2878
294.034,29.487
295.09,29.6709
296.147,29.8726
297.027,30.0751
298.083,30.2585
299.14,30.4716
300.02,30.6631
301.077,30.8438
302.133,31.0567
303.013,31.2336
304.07,31.4344
305.126,31.6185
306.006,31.8103
307.063,31.9926
308.1193,32.1883
309.1757,32.36694
310.056,32.5337
311.112,32.7033
312.169,32.8647
313.0492,33.0198
314.106,33.1498
315.162,33.3188
316.042,33.4448
317.099,33.5766
318.155,33.70944
319.036,33.82442
320.092,33.9361
321.148,34.0779
322.029,34.1584
323.085,34.2442
324.1415,34.3267
325.022,34.373
326.078,34.4463
327.135,34.5127
328.015,34.5187
329.071,34.44
330.128,34.483
331.008,34.5167
332.065,34.4796
333.121,34.3941
334.001,34.2296
335.058,34.0181
336.114,33.9295
337.171,33.6972
338.051,33.523
339.107,33.3338
340.1637,32.9868
341.044,32.59792
342.1,32.3373
343.157,31.7953
344.0372,30.8897
345.094,30.4447
346.15,28.6672
347.03,27.3751
348.087,24.78505
349.143,18.9225
350.024,10.2258
351.08,1.7257
352.136,0.0130988
353.017,2.35508e-05
354.073,1.99416e-08
355.1295,2.18271e-13
356.01,0.0
357.066,0.0
358.123,0.0
359.003,0.0
360.0594,0.0
361.116,0.0
362.172,0.0
363.053,0.0
364.109,0.0
365.165,0.0
366.046,0.0
367.102,0.0
368.159,0.0
369.039,0.0
370.095,0.0
371.1517,0.0
372.032,0.0
373.088,0.0
374.145,0.0
375.0252,0.0
376.082,0.0
377.138,0.0
378.018,0.0
379.075,0.0
380.131,0.0
381.012,0.0
382.068,0.0
383.124,0.0
384.005,0.0
385.061,0.0
386.117,0.0
387.1739,0.0
388.054,0.0
389.111,0.0
390.167,0.0
391.0474,0.0
392.104,0.0
393.16,0.0
394.041,0.0
395.097,0.0
396.153,0.0
397.034,0.0
398.09,0.0
399.147,0.0
400.027,0.0
401.083,0.0
402.1397,0.0
403.02,0.0
404.076,0.0
405.133,0.0
406.0132,0.0
407.07,0.0
408.126,0.0
409.006,0.0
410.063,0.0
411.119,0.0
412.176,0.0
413.056,0.0
414.112,0.0
415.169,0.0
416.049,0.0
417.105,0.0
418.1619,0.0
419.042,0.0
420.099,0.0
421.155,0.0
422.0354,0.0
423.092,0.0
424.148,0.0
425.029,0.0
426.085,0.0
427.141,0.0
428.022,0.0
429.078,0.0
430.135,0.0
431.015,0.0
432.071,0.0
433.128,0.0
434.008,0.0
435.064,0.0
436.121,0.0
437.001,0.0
438.0576,0.0
439.114,0.0
440.17,0.0
441.051,0.0
442.107,0.0
443.164,0.0
444.044,0.0
445.1,0.0
446.157,0.0
447.037,0.0
448.093,0.0
449.1499,0.0
450.03,0.0
451.087,0.0
452.143,0.0
453.0234,0.0
454.08,0.0
455.136,0.0
456.017,0.0
457.073,0.0
458.129,0.0
459.01,0.0
460.066,0.0
461.123,0.0
462.003,0.0
463.059,0.0
464.116,0.0
465.1721,0.0
466.052,0.0
467.109,0.0
468.165,0.0
469.0456,0.0
470.102,0.0
471.158,0.0
472.039,0.0
473.095,0.0
474.152,0.0
475.032,0.0
476.088,0.0
477.145,0.0
478.025,0.0
479.081,0.0
480.1379,0.0
481.018,0.0
482.075,0.0
483.131,0.0
484.0114,0.0
485.0678,0.0
486.124,0.0
487.005,0.0
488.061,0.0
489.117,0.0
490.174,0.0
491.054,0.0
492.111,0.0
493.167,0.0
494.047,0.0
495.104,0.0
496.1601,0.0
497.04,0.0
498.097,0.0
499.153,0.0
500.0,0.0