File: PMMA/Validation_Results/BUW-FZJ/BUW-FZJ_ApproachA_Gasification_q50_MLR_R5.csv
Time,MLR
[s],[g/m2/s]
0.0,0.0
1.056409,8.06136e-05
2.112818,0.00041815
3.16923,0.00179523
4.04957,0.00481947
5.10598,0.0106916
6.16239,0.0215486
7.04273,0.0368161
8.09914,0.0586504
9.15554,0.0908235
10.0359,0.128752
11.0923,0.175527
12.1487,0.23609
13.029,0.299707
14.0855,0.370212
15.1419,0.452816
16.0222,0.531919
17.0786,0.612518
18.135,0.700435
19.0154,0.780235
20.0718,0.859381
21.12818,0.946422
22.0085,1.02916
23.06493,1.11828
24.1213,1.22703
25.00168,1.3417
26.0581,1.47602
27.1145,1.64877
28.1709,1.85362
29.0512,2.07216
30.1077,2.32339
31.1641,2.63403
32.0444,2.951984
33.1008,3.30165
34.1572,3.71493
35.0376,4.11958
36.094,4.54579
37.1504,5.02912
38.0307,5.4842
39.0871,5.94636
40.1435,6.45307
41.0239,6.91572
42.0803,7.37277
43.1367,7.86178
44.017,8.29881
45.0735,8.72265
46.12986,9.16911
47.0102,9.56291
48.06661,9.94075
49.123,10.3353
50.00336,10.681
51.0598,11.0109
52.1162,11.3542
53.1726,11.6804
54.0529,11.9653
55.1093,12.2367
56.1657,12.5188
57.0461,12.7652
58.1025,13.0001
59.1589,13.2445
60.0392,13.4583
61.0957,13.6623
62.1521,13.8748
63.0324,14.0609
64.0888,14.2389
65.1452,14.4245
66.0256,14.5874
67.082,14.7433
68.1384,14.9061
69.0187,15.0492
70.0751,15.1863
71.13154,15.3297
72.0119,15.4558
73.06829,15.5768
74.1247,15.7036
75.005,15.815
76.0614,15.9222
77.1179,16.0344
78.1743,16.142
79.0546,16.2369
80.111,16.328
81.1674,16.4235
82.0478,16.5078
83.1042,16.5888
84.1606,16.67388
85.0409,16.7488
86.0973,16.8211
87.1537,16.8968
88.0341,16.9638
89.0905,17.028
90.1469,17.0956
91.0272,17.15527
92.0837,17.2127
93.1401,17.2731
94.0204,17.3263
95.0768,17.3777
96.13322,17.4317
97.0136,17.47944
98.06997,17.5253
99.1264,17.5735
100.007,17.6162
101.063,17.6573
102.12,17.7006
103.176,17.7422
104.056,17.7789
105.1127,17.8144
106.169,17.8517
107.049,17.8887
108.106,17.9253
109.162,17.9606
110.043,17.9923
111.099,18.0231
112.155,18.0558
113.036,18.0862
114.092,18.1122
115.149,18.1448
116.029,18.1718
117.085,18.1986
118.142,18.2266
119.022,18.2522
120.078,18.2765
121.1349,18.3031
122.015,18.3276
123.072,18.3498
124.128,18.37756
125.0084,18.402
126.065,18.4224
127.121,18.4456
128.002,18.4675
129.058,18.4881
130.114,18.5107
131.171,18.533
132.051,18.553
133.108,18.573
134.164,18.5948
135.044,18.61542
136.101,18.632
137.1571,18.656
138.037,18.6751
139.094,18.6941
140.15,18.7147
141.0306,18.733
142.087,18.7536
143.143,18.7721
144.024,18.7926
145.08,18.8116
146.137,18.8297
147.017,18.8504
148.073,18.8687
149.13,18.8891
150.01,18.9076
151.066,18.9279
152.1229,18.9465
153.003,18.9675
154.06,18.9855
155.116,19.006
156.172,19.0279
157.053,19.0475
158.109,19.0668
159.166,19.088
160.046,19.109
161.102,19.1269
162.159,19.1503
163.039,19.1691
164.096,19.191
165.152,19.2164
166.032,19.23936
167.089,19.25744
168.1451,19.28078
169.025,19.2991
170.082,19.3233
171.138,19.345
172.0186,19.369
173.075,19.3895
174.131,19.4145
175.012,19.4392
176.068,19.4591
177.125,19.4875
178.005,19.5111
179.061,19.5356
180.118,19.5622
181.174,19.589
182.054,19.6131
183.1109,19.6395
184.1673,19.66629
185.048,19.69385
186.104,19.7178
187.16,19.7495
188.0408,19.777
189.097,19.8026
190.154,19.8348
191.034,19.861
192.09,19.891
193.147,19.9239
194.027,19.9543
195.084,19.9836
196.14,20.0165
197.02,20.046
198.077,20.0795
199.1331,20.1121
200.013,20.1464
201.07,20.1772
202.126,20.2166
203.0066,20.2543
204.063,20.28826
205.119,20.3253
206.176,20.3609
207.056,20.3979
208.113,20.43112
209.169,20.472
210.049,20.5057
211.106,20.546
212.162,20.5831
213.042,20.6247
214.099,20.6596
215.1553,20.7047
216.036,20.7451
217.092,20.7831
218.148,20.8295
219.0288,20.8739
220.085,20.9154
221.142,20.9633
222.022,21.0032
223.078,21.0467
224.135,21.0975
225.015,21.14
226.072,21.1867
227.128,21.2357
228.008,21.2876
229.065,21.3405
230.1211,21.3963
231.001,21.4393
232.058,21.4872
233.114,21.5373
234.171,21.5924
235.051,21.6395
236.107,21.6932
237.164,21.747
238.044,21.7986
239.101,21.8505
240.157,21.9073
241.037,21.9629
242.094,22.0185
243.15,22.0796
244.03,22.1331
245.087,22.1883
246.1433,22.2519
247.024,22.3065
248.08,22.3661
249.136,22.4368
250.0168,22.5061
251.073,22.5631
252.13,22.6244
253.01,22.6843
254.066,22.7408
255.123,22.8093
256.003,22.8673
257.06,22.9326
258.116,22.998
259.172,23.0698
260.053,23.13784
261.109,23.2023
262.1655,23.2762
263.046,23.342
264.102,23.4168
265.159,23.50035
266.039,23.57497
267.095,23.64102
268.152,23.7167
269.032,23.7801
270.089,23.8501
271.145,23.9278
272.025,24.00101
273.082,24.07612
274.138,24.1604
275.018,24.237
276.075,24.3179
277.1313,24.40634
278.012,24.4885
279.068,24.5742
280.124,24.6701
281.0048,24.7574
282.061,24.8503
283.118,24.952
284.174,25.0564
285.054,25.1562
286.111,25.2554
287.167,25.3683
288.048,25.4751
289.104,25.5839
290.16,25.708
291.041,25.8204
292.097,25.9373
293.1535,26.06944
294.034,26.192
295.09,26.326
296.147,26.4634
297.027,26.5943
298.083,26.7443
299.14,26.9156
300.02,27.0698
301.077,27.218
302.133,27.3832
303.013,27.534
304.07,27.6894
305.126,27.8838
306.006,28.0588
307.063,28.2213
308.1193,28.4032
309.1757,28.6018
310.056,28.7884
311.112,28.9592
312.169,29.1441
313.0492,29.3443
314.106,29.5251
315.162,29.7204
316.042,29.9163
317.099,30.0881
318.155,30.2833
319.036,30.471
320.092,30.64002
321.148,30.8554
322.029,31.0244
323.085,31.2075
324.1415,31.3892
325.022,31.5473
326.078,31.721
327.135,31.9059
328.015,32.0595
329.071,32.2171
330.128,32.37777
331.008,32.5495
332.065,32.6586
333.121,32.8191
334.001,32.9444
335.058,33.075
336.114,33.207
337.171,33.3315
338.051,33.4471
339.107,33.5448
340.1637,33.6436
341.044,33.7278
342.1,33.79227
343.157,33.8687
344.0372,33.9069
345.094,33.92
346.15,34.0067
347.03,34.0583
348.087,34.0703
349.143,34.0586
350.024,33.9896
351.08,33.9642
352.136,33.856
353.017,33.8492
354.073,33.775
355.1295,33.6199
356.01,33.38369
357.066,33.0521
358.123,32.7081
359.003,32.5172
360.0594,32.0511
361.116,31.8123
362.172,31.3498
363.053,31.0354
364.109,29.8952
365.165,29.1586
366.046,27.3807
367.102,24.3782
368.159,19.8432
369.039,12.9181
370.095,3.53952
371.1517,0.117159
372.032,0.000772157
373.088,1.28521e-06
374.145,5.2666e-11
375.0252,0.0
376.082,0.0
377.138,0.0
378.018,0.0
379.075,0.0
380.131,0.0
381.012,0.0
382.068,0.0
383.124,0.0
384.005,0.0
385.061,0.0
386.117,0.0
387.1739,0.0
388.054,0.0
389.111,0.0
390.167,0.0
391.0474,0.0
392.104,0.0
393.16,0.0
394.041,0.0
395.097,0.0
396.153,0.0
397.034,0.0
398.09,0.0
399.147,0.0
400.027,0.0
401.083,0.0
402.1397,0.0
403.02,0.0
404.076,0.0
405.133,0.0
406.0132,0.0
407.07,0.0
408.126,0.0
409.006,0.0
410.063,0.0
411.119,0.0
412.176,0.0
413.056,0.0
414.112,0.0
415.169,0.0
416.049,0.0
417.105,0.0
418.1619,0.0
419.042,0.0
420.099,0.0
421.155,0.0
422.0354,0.0
423.092,0.0
424.148,0.0
425.029,0.0
426.085,0.0
427.141,0.0
428.022,0.0
429.078,0.0
430.135,0.0
431.015,0.0
432.071,0.0
433.128,0.0
434.008,0.0
435.064,0.0
436.121,0.0
437.001,0.0
438.0576,0.0
439.114,0.0
440.17,0.0
441.051,0.0
442.107,0.0
443.164,0.0
444.044,0.0
445.1,0.0
446.157,0.0
447.037,0.0
448.093,0.0
449.1499,0.0
450.03,0.0
451.087,0.0
452.143,0.0
453.0234,0.0
454.08,0.0
455.136,0.0
456.017,0.0
457.073,0.0
458.129,0.0
459.01,0.0
460.066,0.0
461.123,0.0
462.003,0.0
463.059,0.0
464.116,0.0
465.1721,0.0
466.052,0.0
467.109,0.0
468.165,0.0
469.0456,0.0
470.102,0.0
471.158,0.0
472.039,0.0
473.095,0.0
474.152,0.0
475.032,0.0
476.088,0.0
477.145,0.0
478.025,0.0
479.081,0.0
480.1379,0.0
481.018,0.0
482.075,0.0
483.131,0.0
484.0114,0.0
485.0678,0.0
486.124,0.0
487.005,0.0
488.061,0.0
489.117,0.0
490.174,0.0
491.054,0.0
492.111,0.0
493.167,0.0
494.047,0.0
495.104,0.0
496.1601,0.0
497.04,0.0
498.097,0.0
499.153,0.0
500.0,0.0