File: PMMA/Validation_Results/BUW-FZJ/BUW-FZJ_ApproachA_Gasification_q50_Temp_R3.csv
Time,T_back_1
[s],[K]
0.0,291.2
1.056409,291.2
2.112818,291.2
3.16923,291.2
4.04957,291.2
5.10598,291.2
6.16239,291.2
7.04273,291.2
8.09914,291.2
9.15554,291.2
10.0359,291.2
11.0923,291.2
12.1487,291.2
13.029,291.2
14.0855,291.2
15.1419,291.2
16.0222,291.2
17.0786,291.2
18.135,291.201
19.0154,291.201
20.0718,291.202
21.12818,291.204
22.0085,291.206
23.06493,291.209
24.1213,291.214
25.00168,291.22
26.0581,291.228
27.1145,291.24
28.1709,291.255
29.0512,291.272
30.1077,291.292
31.1641,291.32
32.0444,291.35
33.1008,291.385
34.1572,291.43
35.0376,291.478
36.094,291.533
37.1504,291.6
38.0307,291.67
39.0871,291.749
40.1435,291.844
41.0239,291.941
42.0803,292.047
43.1367,292.175
44.017,292.302
45.0735,292.44
46.12986,292.603
47.0102,292.763
48.06661,292.936
49.123,293.137
50.00336,293.334
51.0598,293.543
52.1162,293.784
53.1726,294.041
54.0529,294.289
55.1093,294.55
56.1657,294.849
57.0461,295.136
58.1025,295.436
59.1589,295.778
60.0392,296.104
61.0957,296.444
62.1521,296.829
63.0324,297.195
64.0888,297.574
65.1452,298.001
66.0256,298.406
67.082,298.823
68.1384,299.292
69.0187,299.735
70.0751,300.19
71.13154,300.7
72.0119,301.18
73.06829,301.671
74.1247,302.22
75.005,302.735
76.0614,303.262
77.1179,303.849
78.1743,304.449
79.0546,305.009
80.111,305.581
81.1674,306.217
82.0478,306.809
83.1042,307.413
84.1606,308.082
85.0409,308.705
86.0973,309.339
87.1537,310.04
88.0341,310.693
89.0905,311.354
90.1469,312.086
91.0272,312.766
92.0837,313.455
93.1401,314.216
94.0204,314.922
95.0768,315.637
96.13322,316.425
97.0136,317.156
98.06997,317.894
99.1264,318.709
100.007,319.463
101.063,320.225
102.12,321.064
103.176,321.912
104.056,322.696
105.1127,323.487
106.169,324.358
107.049,325.164
108.106,325.976
109.162,326.869
110.043,327.694
111.099,328.526
112.155,329.44
113.036,330.284
114.092,331.135
115.149,332.069
116.029,332.932
117.085,333.8
118.142,334.754
119.022,335.634
120.078,336.52
121.1349,337.493
122.015,338.39
123.072,339.292
124.128,340.283
125.0084,341.196
126.065,342.115
127.121,343.123
128.002,344.052
129.058,344.986
130.114,346.011
131.171,347.042
132.051,347.992
133.108,348.947
134.164,349.994
135.044,350.958
136.101,351.928
137.1571,352.991
138.037,353.97
139.094,354.954
140.15,356.033
141.0306,357.026
142.087,358.025
143.143,359.119
144.024,360.126
145.08,361.138
146.137,362.247
147.017,363.268
148.073,364.294
149.13,365.418
150.01,366.453
151.066,367.492
152.1229,368.631
153.003,369.679
154.06,370.732
155.116,371.885
156.172,373.043
157.053,374.109
158.109,375.18
159.166,376.353
160.046,377.432
161.102,378.516
162.159,379.703
163.039,380.795
164.096,381.8916
165.152,383.093
166.032,384.198
167.089,385.308
168.1451,386.523
169.025,387.641
170.082,388.764
171.138,389.993
172.0186,391.124
173.075,392.259
174.131,393.503
175.012,394.647
176.068,395.795
177.125,397.052
178.005,398.209
179.061,399.37
180.118,400.641
181.174,401.917
182.054,403.091
183.1109,404.27
184.1673,405.56
185.048,406.747
186.104,407.938
187.16,409.242
188.0408,410.442
189.097,411.6459
190.154,412.964
191.034,414.177
192.09,415.394
193.147,416.726
194.027,417.9511
195.084,419.181
196.14,420.527
197.02,421.766
198.077,423.009
199.1331,424.369
200.013,425.6205
201.07,426.876
202.126,428.251
203.0066,429.515
204.063,430.784
205.119,432.173
206.176,433.567
207.056,434.849
208.113,436.136
209.169,437.544
210.049,438.839
211.106,440.1391
212.162,441.562
213.042,442.87
214.099,444.183
215.1553,445.621
216.036,446.942
217.092,448.269
218.148,449.721
219.0288,451.056
220.085,452.396
221.142,453.863
222.022,455.212
223.078,456.566
224.135,458.048
225.015,459.411
226.072,460.778
227.128,462.275
228.008,463.652
229.065,465.034
230.1211,466.547
231.001,467.938
232.058,469.335
233.114,470.863
234.171,472.397
235.051,473.8084
236.107,475.225
237.164,476.775
238.044,478.202
239.101,479.633
240.157,481.201
241.037,482.643
242.094,484.09
243.15,485.675
244.03,487.1337
245.087,488.598
246.1433,490.2
247.024,491.675
248.08,493.155
249.136,494.776
250.0168,496.269
251.073,497.766
252.13,499.407
253.01,500.917
254.066,502.433
255.123,504.0947
256.003,505.623
257.06,507.1584
258.116,508.84
259.172,510.529
260.053,512.0842
261.109,513.645
262.1655,515.357
263.046,516.931
264.102,518.513
265.159,520.246
266.039,521.841
267.095,523.444
268.152,525.199
269.032,526.815
270.089,528.438
271.145,530.216
272.025,531.853
273.082,533.4961
274.138,535.296
275.018,536.952
276.075,538.614
277.1313,540.433
278.012,542.106
279.068,543.785
280.124,545.622
281.0048,547.311
282.061,549.004
283.118,550.856
284.174,552.714
285.054,554.421
286.111,556.133
287.167,558.004
288.048,559.722
289.104,561.441
290.16,563.318
291.041,565.04
292.097,566.7641
293.1535,568.646
294.034,570.372
295.09,572.098
296.147,573.981
297.027,575.709
298.083,577.434
299.14,579.316
300.02,581.041
301.077,582.763
302.133,584.6405
303.013,586.359
304.07,588.075
305.126,589.941
306.006,591.647
307.063,593.35
308.1193,595.203
309.1757,597.052
310.056,598.744
311.112,600.432
312.169,602.2705
313.0492,603.952
314.106,605.631
315.162,607.461
316.042,609.135
317.099,610.809
318.155,612.633
319.036,614.305
320.092,615.978
321.148,617.8044
322.029,619.48
323.085,621.16
324.1415,622.998
325.022,624.689
326.078,626.3854
327.135,628.246
328.015,629.963
329.071,631.693
330.128,633.594
331.008,635.355
332.065,637.133
333.121,639.096
334.001,640.919
335.058,642.767
336.114,644.815
337.171,646.899
338.051,648.842
339.107,650.823
340.1637,653.023
341.044,655.0808
342.1,657.203
343.157,659.5908
344.0372,661.813
345.094,664.103
346.15,666.702
347.03,669.18
348.087,671.743
349.143,674.65
350.024,677.395
351.08,680.341
352.136,683.758
353.017,687.077
354.073,690.579
355.1295,694.74
356.01,698.834
357.066,703.499
358.123,709.383
359.003,715.6342
360.0594,722.353
361.116,732.575
362.172,746.414
363.053,761.201
364.109,784.364
365.165,796.613
366.046,799.765
367.102,804.0182
368.159,808.346
369.039,811.86
370.095,814.977
371.1517,818.019
372.032,820.533
373.088,822.81
374.145,825.095
375.0252,827.021
376.082,828.809
377.138,830.625
378.018,832.183
379.075,833.649
380.131,835.162
381.012,836.471
382.068,837.713
383.124,838.998
384.005,840.12
385.061,841.189
386.117,842.304
387.1739,843.37
388.054,844.311
389.111,845.214
390.167,846.16
391.0474,846.997
392.104,847.8029
393.16,848.654
394.041,849.412
395.097,850.146
396.153,850.921
397.034,851.608
398.09,852.276
399.147,852.983
400.027,853.612
401.083,854.224
402.1397,854.872
403.02,855.452
404.076,856.016
405.133,856.615
406.0132,857.151
407.07,857.674
408.126,858.229
409.006,858.729
410.063,859.214
411.119,859.733
412.176,860.238
413.056,860.693
414.112,861.136
415.169,861.611
416.049,862.035
417.105,862.453
418.1619,862.899
419.042,863.299
420.099,863.692
421.155,864.112
422.0354,864.491
423.092,864.8597
424.148,865.257
425.029,865.614
426.085,865.964
427.141,866.34
428.022,866.679
429.078,867.012
430.135,867.368
431.015,867.691
432.071,868.005
433.128,868.347
434.008,868.651
435.064,868.953
436.121,869.277
437.001,869.569
438.0576,869.86
439.114,870.172
440.17,870.479
441.051,870.755
442.107,871.03
443.164,871.322
444.044,871.5875
445.1,871.85
446.157,872.13
447.037,872.385
448.093,872.637
449.1499,872.903
450.03,873.148
451.087,873.389
452.143,873.647
453.0234,873.88
454.08,874.113
455.136,874.361
456.017,874.585
457.073,874.807
458.129,875.046
459.01,875.263
460.066,875.476
461.123,875.705
462.003,875.914
463.059,876.12
464.116,876.341
465.1721,876.559
466.052,876.759
467.109,876.953
468.165,877.164
469.0456,877.356
470.102,877.545
471.158,877.748
472.039,877.933
473.095,878.116
474.152,878.313
475.032,878.492
476.088,878.667
477.145,878.8597
478.025,879.032
479.081,879.202
480.1379,879.387
481.018,879.555
482.075,879.72
483.131,879.9
484.0114,880.063
485.0678,880.222
486.124,880.395
487.005,880.553
488.061,880.71
489.117,880.879
490.174,881.046
491.054,881.1944
492.111,881.345
493.167,881.508
494.047,881.657
495.104,881.802
496.1601,881.957
497.04,882.101
498.097,882.243
499.153,882.397
500.0,882.533