File: PMMA/Validation_Results/BUW-FZJ/BUW-FZJ-B_Gasification_q50_Mass_R3.csv
Time,Mass
[s],[g]
0.0,26.6818
1.0564,26.6818
2.1128,26.6818
3.1692,26.6818
4.0496,26.6818
5.106,26.6818
6.1624,26.6818
7.0427,26.6818
8.0991,26.6818
9.1555,26.6818
10.0359,26.6818
11.0923,26.6818
12.1487,26.6818
13.029,26.6818
14.0855,26.6817
15.1419,26.6817
16.0222,26.6816
17.0786,26.6815
18.135,26.6813
19.0154,26.681
20.0718,26.6806
21.1282,26.6799
22.0085,26.679
23.0649,26.6776
24.1213,26.6756
25.0017,26.6732
26.0581,26.6699
27.1145,26.6653
28.1709,26.6594
29.0512,26.6526
30.1077,26.6444
31.1641,26.6336
32.0444,26.622
33.1008,26.6085
34.1572,26.5917
35.0376,26.5744
36.094,26.5551
37.1504,26.532
38.0307,26.509
39.0871,26.4841
40.1435,26.4551
41.0239,26.4269
42.0803,26.3971
43.1367,26.3629
44.017,26.3302
45.0735,26.2961
46.1299,26.2576
47.0102,26.221
48.0666,26.1833
49.123,26.141
50.0034,26.1012
51.0598,26.0604
52.1162,26.0149
53.1726,25.9683
54.0529,25.9248
55.1093,25.8806
56.1657,25.8314
57.0461,25.7856
58.1025,25.7392
59.1589,25.6877
60.0392,25.64
61.0957,25.5916
62.1521,25.5382
63.0324,25.4886
64.0888,25.4386
65.1452,25.3834
66.0256,25.3323
67.082,25.2808
68.1384,25.224
69.0187,25.1715
70.0751,25.1187
71.1315,25.0605
72.0119,25.0068
73.0683,24.9527
74.1247,24.8933
75.005,24.8385
76.0614,24.7833
77.1179,24.7228
78.1743,24.6619
79.0546,24.6057
80.111,24.5493
81.1674,24.4873
82.0478,24.4303
83.1042,24.373
84.1606,24.3101
85.0409,24.2523
86.0973,24.1942
87.1537,24.1305
88.0341,24.0719
89.0905,24.0131
90.1469,23.9486
91.0272,23.8893
92.0837,23.8298
93.1401,23.7647
94.0204,23.7047
95.0768,23.6446
96.1332,23.5788
97.0136,23.5182
98.07,23.4575
99.1264,23.391
100.0067,23.3299
101.0631,23.2686
102.1195,23.2016
103.176,23.1343
104.0563,23.0725
105.1127,23.0104
106.1691,22.9426
107.0494,22.8803
108.1059,22.8177
109.1623,22.7494
110.0426,22.6865
111.099,22.6235
112.1554,22.5546
113.0358,22.4913
114.0922,22.4278
115.1486,22.3583
116.0289,22.2945
117.0853,22.2305
118.1417,22.1606
119.0221,22.0963
120.0785,22.0318
121.1349,21.9613
122.0152,21.8966
123.0716,21.8316
124.1281,21.7606
125.0084,21.6954
126.0648,21.63
127.1212,21.5584
128.0016,21.4926
129.058,21.4267
130.1144,21.3546
131.1708,21.2824
132.0511,21.2159
133.1075,21.1494
134.1639,21.0765
135.0443,21.0096
136.1007,20.9426
137.1571,20.8692
138.0374,20.8018
139.0938,20.7342
140.1503,20.6603
141.0306,20.5923
142.087,20.5242
143.1434,20.4497
144.0238,20.3813
145.0802,20.3127
146.1366,20.2377
147.0169,20.1687
148.0733,20.0996
149.1297,20.024
150.0101,19.9545
151.0665,19.8848
152.1229,19.8086
153.0032,19.7386
154.0596,19.6685
155.1161,19.5917
156.1725,19.5148
157.0528,19.444
158.1092,19.3731
159.1656,19.2956
160.046,19.2243
161.1024,19.1529
162.1588,19.0748
163.0391,19.003
164.0955,18.931
165.1519,18.8523
166.0323,18.7799
167.0887,18.7074
168.1451,18.628
169.0254,18.5551
170.0818,18.482
171.1383,18.4021
172.0186,18.3286
173.075,18.2549
174.1314,18.1744
175.0118,18.1003
176.0682,18.026
177.1246,17.9448
178.0049,17.8702
179.0613,17.7953
180.1177,17.7135
181.1742,17.6314
182.0545,17.5559
183.1109,17.4802
184.1673,17.3975
185.0476,17.3214
186.104,17.2451
187.1605,17.1617
188.0408,17.0849
189.0972,17.008
190.1536,16.9239
191.034,16.8465
192.0904,16.769
193.1468,16.6841
194.0271,16.6061
195.0835,16.5279
196.1399,16.4424
197.0203,16.3637
198.0767,16.2848
199.1331,16.1985
200.0134,16.1191
201.0698,16.0395
202.1263,15.9524
203.0066,15.8724
204.063,15.792
205.1194,15.7042
206.1758,15.616
207.0562,15.535
208.1126,15.4537
209.169,15.3647
210.0493,15.2829
211.1057,15.2009
212.1621,15.1111
213.0425,15.0286
214.0989,14.9457
215.1553,14.8551
216.0356,14.7718
217.092,14.6882
218.1485,14.5967
219.0288,14.5125
220.0852,14.4281
221.1416,14.3356
222.022,14.2506
223.0784,14.1654
224.1348,14.072
225.0151,13.9861
226.0715,13.9
227.1279,13.8057
228.0083,13.7189
229.0647,13.6319
230.1211,13.5366
231.0014,13.4489
232.0578,13.3609
233.1143,13.2646
234.1707,13.168
235.051,13.079
236.1074,12.9897
237.1638,12.892
238.0442,12.802
239.1006,12.7117
240.157,12.6128
241.0373,12.5219
242.0937,12.4305
243.1501,12.3305
244.0305,12.2384
245.0869,12.146
246.1433,12.0448
247.0236,11.9516
248.08,11.8581
249.1365,11.7557
250.0168,11.6614
251.0732,11.5667
252.1296,11.463
253.01,11.3675
254.0664,11.2716
255.1228,11.1665
256.0031,11.0698
257.0595,10.9727
258.1159,10.8662
259.1723,10.7593
260.0527,10.6609
261.1091,10.562
262.1655,10.4536
263.0458,10.3538
264.1023,10.2536
265.1587,10.1437
266.039,10.0426
267.0954,9.941
268.1518,9.8296
269.0322,9.7271
270.0886,9.624
271.145,9.5111
272.0253,9.4071
273.0817,9.3027
274.1381,9.1882
275.0185,9.0827
276.0749,8.9768
277.1313,8.8607
278.0116,8.7538
279.0681,8.6464
280.1245,8.5287
281.0048,8.4204
282.0612,8.3115
283.1176,8.1923
284.174,8.0724
285.0544,7.9621
286.1108,7.8514
287.1672,7.73
288.0475,7.6183
289.1039,7.5061
290.1603,7.3833
291.0407,7.2702
292.0971,7.1567
293.1535,7.0325
294.0338,6.9182
295.0903,6.8034
296.1467,6.6778
297.027,6.5623
298.0834,6.4464
299.1398,6.3195
300.0202,6.2029
301.0766,6.0858
302.133,5.9578
303.0133,5.8401
304.0697,5.7221
305.1261,5.5931
306.0065,5.4744
307.0629,5.3555
308.1193,5.2254
309.1757,5.095
310.056,4.9752
311.1125,4.8552
312.1689,4.7239
313.0492,4.6034
314.1056,4.4826
315.162,4.3506
316.0424,4.2293
317.0988,4.1078
318.1552,3.9751
319.0355,3.8532
320.0919,3.7312
321.1483,3.5978
322.0287,3.4754
323.0851,3.3528
324.1415,3.2189
325.0218,3.096
326.0783,2.9731
327.1347,2.8388
328.015,2.7156
329.0714,2.5923
330.1278,2.4578
331.0082,2.3345
332.0646,2.2111
333.121,2.0766
334.0013,1.9534
335.0577,1.8303
336.1141,1.6961
337.1705,1.5623
338.0509,1.4399
339.1073,1.318
340.1637,1.1856
341.044,1.0649
342.1005,0.9452
343.1569,0.8158
344.0372,0.6987
345.0936,0.5837
346.15,0.4613
347.0304,0.3531
348.0868,0.2504
349.1432,0.1481
350.0235,0.0687
351.0799,0.0161
352.1363,0.0002
353.0167,0.0
354.0731,0.0
355.1295,0.0
356.0098,0.0
357.0663,0.0
358.1226,0.0
359.003,0.0
360.0594,0.0
361.1158,0.0
362.1722,0.0
363.0526,0.0
364.109,0.0
365.1654,0.0
366.0457,0.0
367.1021,0.0
368.1585,0.0
369.0389,0.0
370.0953,0.0
371.1517,0.0
372.032,0.0
373.0884,0.0
374.1449,0.0
375.0252,0.0
376.0816,0.0
377.138,0.0
378.0184,0.0
379.0748,0.0
380.1312,0.0
381.0115,0.0
382.0679,0.0
383.1243,0.0
384.0047,0.0
385.0611,0.0
386.1175,0.0
387.1739,0.0
388.0542,0.0
389.1106,0.0
390.1671,0.0
391.0474,0.0
392.1038,0.0
393.1602,0.0
394.0406,0.0
395.097,0.0
396.1534,0.0
397.0337,0.0
398.0901,0.0
399.1465,0.0
400.0269,0.0
401.0833,0.0
402.1397,0.0
403.02,0.0
404.0764,0.0
405.1329,0.0
406.0132,0.0
407.0696,0.0
408.126,0.0
409.0064,0.0
410.0628,0.0
411.1192,0.0
412.1756,0.0
413.0559,0.0
414.1123,0.0
415.1687,0.0
416.0491,0.0
417.1055,0.0
418.1619,0.0
419.0422,0.0
420.0986,0.0
421.1551,0.0
422.0354,0.0
423.0918,0.0
424.1482,0.0
425.0286,0.0
426.085,0.0
427.1414,0.0
428.0217,0.0
429.0781,0.0
430.1345,0.0
431.0149,0.0
432.0713,0.0
433.1277,0.0
434.008,0.0
435.0644,0.0
436.1208,0.0
437.0012,0.0
438.0576,0.0
439.114,0.0
440.1704,0.0
441.0508,0.0
442.1072,0.0
443.1636,0.0
444.0439,0.0
445.1003,0.0
446.1567,0.0
447.0371,0.0
448.0935,0.0
449.1499,0.0
450.0302,0.0
451.0866,0.0
452.1431,0.0
453.0234,0.0
454.0798,0.0
455.1362,0.0
456.0166,0.0
457.073,0.0
458.1294,0.0
459.0097,0.0
460.0661,0.0
461.1225,0.0
462.0029,0.0
463.0593,0.0
464.1157,0.0
465.1721,0.0
466.0524,0.0
467.1088,0.0
468.1653,0.0
469.0456,0.0
470.102,0.0
471.1584,0.0
472.0388,0.0
473.0952,0.0
474.1516,0.0
475.0319,0.0
476.0883,0.0
477.1447,0.0
478.0251,0.0
479.0815,0.0
480.1379,0.0
481.0182,0.0
482.0746,0.0
483.131,0.0
484.0114,0.0
485.0678,0.0
486.1242,0.0
487.0046,0.0
488.061,0.0
489.1174,0.0
490.1738,0.0
491.0541,0.0
492.1105,0.0
493.1669,0.0
494.0473,0.0
495.1037,0.0
496.1601,0.0
497.0404,0.0
498.0968,0.0
499.1533,0.0
500.0,0.0