File: PMMA/Validation_Results/UMET/Model_MaCFP-PMMA_Gasification_q50_MLR_R4.csv
Time,MLR
[s],[g/m2/s]
0,0
1,1.20E-11
2,7.59E-09
3,2.62E-07
4,3.88E-06
5,1.84E-05
6,6.66E-05
7,6.03E-04
8,6.03E-04
9,0.003114187
10,0.003114187
11,0.0116564
12,0.0116564
13,0.0705559
14,0.0705559
15,0.0705559
16,0.0705559
17,0.244957
18,0.244957
19,0.244957
20,0.244957
21,0.585859
22,0.585859
23,0.585859
24,0.585859
25,0.585859
26,1.11081
27,1.11081
28,1.11081
29,1.11081
30,2.66808
31,2.66808
32,2.66808
33,2.66808
34,2.66808
35,2.66808
36,2.66808
37,2.66808
38,5.20306
39,5.20306
40,5.20306
41,5.20306
42,5.20306
43,5.20306
44,5.20306
45,5.20306
46,8.3992
47,8.3992
48,8.3992
49,8.3992
50,8.3992
51,8.3992
52,8.3992
53,8.3992
54,8.3992
55,9.86427
56,10.15
57,10.4357
58,10.7215
59,11.0072
60,11.2929
61,11.5787
62,11.8644
63,12.2931
64,12.6083
65,12.9235
66,13.2386
67,13.5538
68,13.869
69,14.1841
70,14.4993
71,14.3559
72,14.5711
73,14.7864
74,15.0016
75,15.2169
76,15.4321
77,15.6474
78,15.8626
79,16.0778
80,16.2931
81,16.5083
82,16.7236
83,16.9388
84,17.1541
85,17.3693
86,17.5845
87,17.7998
88,17.367
89,17.5117
90,17.6564
91,17.8011
92,17.9458
93,18.0905
94,18.2352
95,18.3799
96,18.5246
97,18.6693
98,18.814
99,18.9586
100,19.1033
101,19.248
102,18.9472
103,19.0338
104,19.1205
105,19.2071
106,19.2938
107,19.3804
108,19.4671
109,19.5537
110,19.6404
111,19.7271
112,19.8137
113,19.9004
114,19.987
115,20.0737
116,20.1603
117,20.0507
118,20.1134
119,20.1761
120,20.2388
121,20.3015
122,20.3642
123,20.4269
124,20.4896
125,20.5523
126,20.615
127,20.6777
128,20.7404
129,20.8031
130,20.8658
131,20.8309
132,20.881
133,20.931
134,20.981
135,21.0311
136,21.0811
137,21.1312
138,21.1812
139,21.2313
140,21.2813
141,21.3314
142,21.3814
143,21.4315
144,21.4815
145,21.5316
146,21.5207
147,21.5633
148,21.606
149,21.6486
150,21.6913
151,21.7339
152,21.7766
153,21.8192
154,21.8619
155,21.9045
156,21.9471
157,21.9898
158,22.0324
159,22.0751
160,22.0724
161,22.1092
162,22.146
163,22.1828
164,22.2196
165,22.2564
166,22.2932
167,22.33
168,22.3668
169,22.4036
170,22.4404
171,22.4772
172,22.514
173,22.5508
174,22.5876
175,22.6244
176,22.6612
177,22.698
178,22.7348
179,22.7716
180,22.8084
181,22.8452
182,22.882
183,22.9188
184,22.9556
185,22.9924
186,23.0292
187,23.066
188,23.1029
189,23.0897
190,23.1232
191,23.1567
192,23.1902
193,23.2236
194,23.2571
195,23.2906
196,23.3241
197,23.3576
198,23.391
199,23.4245
200,23.458
201,23.4915
202,23.525
203,23.5584
204,23.5919
205,23.6254
206,23.6589
207,23.6924
208,23.7258
209,23.7593
210,23.7928
211,23.8263
212,23.8598
213,23.8933
214,23.9267
215,23.9602
216,23.9937
217,24.0272
218,23.9937
219,24.0227
220,24.0518
221,24.0808
222,24.1098
223,24.1389
224,24.1679
225,24.1969
226,24.226
227,24.255
228,24.2841
229,24.3131
230,24.3421
231,24.3712
232,24.4002
233,24.4292
234,24.4583
235,24.4873
236,24.5164
237,24.5454
238,24.5744
239,24.6035
240,24.6325
241,24.6615
242,24.6906
243,24.7196
244,24.7487
245,24.7777
246,24.8067
247,24.7417
248,24.7645
249,24.7873
250,24.8101
251,24.833
252,24.8558
253,24.8786
254,24.9014
255,24.9242
256,24.947
257,24.9698
258,24.9927
259,25.0155
260,25.0383
261,25.0611
262,25.0839
263,25.1067
264,25.1295
265,25.1524
266,25.1752
267,25.198
268,25.2208
269,25.2436
270,25.2664
271,25.2892
272,25.312
273,25.3349
274,25.3577
275,25.3805
276,25.4033
277,25.4261
278,25.4489
279,25.4717
280,25.4946
281,25.5174
282,25.5402
283,25.563
284,25.5858
285,25.6086
286,25.6314
287,25.6543
288,25.6771
289,25.6999
290,25.7227
291,25.7455
292,25.7683
293,25.7911
294,25.814
295,25.7691
296,25.7892
297,25.8093
298,25.8293
299,25.8494
300,25.8695
301,25.8895
302,25.9096
303,25.9297
304,25.9497
305,25.9698
306,25.9899
307,26.0099
308,26.03
309,26.0501
310,26.0701
311,26.0902
312,26.1103
313,26.1303
314,26.1504
315,26.1705
316,26.1905
317,26.2106
318,26.2307
319,26.2507
320,26.2708
321,26.2909
322,26.3109
323,26.331
324,26.3511
325,26.3712
326,26.3912
327,26.4113
328,26.4314
329,26.4514
330,26.4715
331,26.4916
332,26.5116
333,26.5317
334,26.5518
335,26.5718
336,26.5919
337,26.612
338,26.632
339,26.6521
340,26.6722
341,26.6922
342,26.7123
343,26.7005
344,26.7192
345,26.738
346,26.7568
347,26.7755
348,26.7943
349,26.8131
350,26.8319
351,26.8506
352,26.8694
353,26.8882
354,26.9069
355,26.9257
356,26.9445
357,26.9633
358,26.982
359,27.0008
360,27.0196
361,27.0383
362,27.0571
363,27.0759
364,27.0604
365,27.0761
366,27.0918
367,27.1075
368,27.1214
369,27.1364
370,27.1514
371,27.1664
372,27.1814
373,27.1963
374,27.2113
375,27.2263
376,27.2413
377,27.2541
378,27.2686
379,16.7085
380,11.0337
381,3.854
382,3.854
383,2.01482
384,2.01482
385,1.1802
386,0.750693
387,0.750693
388,0.372605
389,0.372605
390,0.372605
391,0.372605
392,0.216157
393,0.216157
394,0.216157
395,0.14009
396,0.14009
397,0.14009
398,0.14009
399,0.0738752
400,0.0738752
401,0.0738752
402,0.0738752
403,0.0738752
404,0.0738752
405,0.0738752
406,0.0456291
407,0.0456291
408,0.0456291
409,0.0456291
410,0.0456291
411,0.0456291
412,0.0456291
413,0.0456291
414,0.0311398
415,0.0311398
416,0.0311398
417,0.0311398
418,0.0311398
419,0.0311398
420,0.0311398
421,0.017507
422,0.017507
423,0.017507
424,0.017507
425,0.017507
426,0.017507
427,0.017507
428,0.017507
429,0.017507
430,0.017507
431,0.017507
432,0.017507
433,0.017507
434,0.017507
435,0.0112315
436,0.0112315
437,0.0112315
438,0.0112315
439,0.0112315
440,0.0112315
441,0.0112315
442,0.0112315
443,0.0112315
444,0.0112315
445,0.0112315
446,0.0112315
447,0.0112315
448,0.0112315
449,0.0112315
450,0.00773937
451,0.00773937
452,0.00773937
453,0.00773937
454,0.00773937
455,0.00773937
456,0.00773937
457,0.00773937
458,0.00773937
459,0.00773937
460,0.00773937
461,0.00773937
462,0.00773937
463,0.00773937
464,0.004033319
465,0.004033319
466,0.004033319
467,0.004033319
468,0.004033319
469,0.004033319
470,0.004033319
471,0.004033319
472,0.004033319
473,0.004033319
474,0.004033319
475,0.004033319
476,0.004033319
477,0.004033319
478,0.004033319
479,0.004033319
480,0.004033319