File: PMMA/Validation_Results/UMET/UMET_Gasification_q50_Temp_R5.csv
Time,T_back
[s],[K]
0,290.00
1,291.30
2,291.74
3,292.28
4,292.95
5,293.48
6,293.88
7,294.15
8,294.35
9,294.52
10,294.64
11,294.75
12,294.86
13,294.97
14,295.07
15,295.23
16,295.56
17,295.89
18,296.22
19,296.55
20,296.94
21,297.47
22,298.00
23,298.53
24,299.06
25,299.67
26,300.40
27,301.13
28,301.87
29,302.60
30,303.38
31,304.22
32,305.07
33,305.91
34,306.75
35,307.64
36,308.58
37,309.52
38,310.46
39,311.39
40,312.33
41,313.27
42,314.21
43,315.15
44,316.08
45,317.02
46,317.95
47,318.89
48,319.83
49,320.76
50,321.70
51,322.63
52,323.57
53,324.50
54,325.41
55,326.32
56,327.23
57,328.14
58,329.04
59,329.95
60,330.86
61,331.77
62,332.68
63,333.53
64,334.38
65,335.23
66,336.08
67,336.94
68,337.79
69,338.64
70,339.49
71,340.33
72,341.12
73,341.91
74,342.69
75,343.48
76,344.27
77,345.05
78,345.84
79,346.63
80,347.41
81,348.16
82,348.91
83,349.65
84,350.38
85,351.11
86,351.84
87,352.55
88,353.26
89,353.97
90,354.66
91,355.35
92,356.03
93,356.71
94,357.37
95,358.04
96,358.69
97,359.34
98,359.98
99,360.61
100,361.23
101,361.85
102,362.46
103,363.06
104,363.66
105,364.24
106,364.82
107,365.40
108,365.96
109,366.52
110,367.07
111,367.61
112,368.15
113,368.68
114,369.20
115,369.71
116,370.24
117,370.77
118,371.29
119,371.80
120,372.31
121,372.82
122,373.32
123,373.82
124,374.31
125,374.80
126,375.28
127,375.76
128,376.24
129,376.70
130,377.17
131,377.63
132,378.08
133,378.54
134,379.02
135,379.50
136,379.98
137,380.46
138,380.94
139,381.42
140,381.90
141,382.37
142,382.85
143,383.33
144,383.80
145,384.27
146,384.75
147,385.22
148,385.69
149,386.16
150,386.63
151,387.10
152,387.58
153,388.06
154,388.54
155,389.02
156,389.49
157,389.97
158,390.45
159,390.93
160,391.41
161,391.89
162,392.37
163,392.85
164,393.33
165,393.80
166,394.28
167,394.76
168,395.24
169,395.72
170,396.19
171,396.66
172,397.12
173,397.59
174,398.05
175,398.52
176,398.98
177,399.44
178,399.90
179,400.36
180,400.82
181,401.28
182,401.74
183,402.20
184,402.65
185,403.11
186,403.56
187,404.00
188,404.45
189,404.89
190,405.33
191,405.77
192,406.21
193,406.64
194,407.08
195,407.51
196,407.94
197,408.37
198,408.79
199,409.22
200,409.64
201,410.06
202,410.48
203,410.90
204,411.32
205,411.73
206,412.14
207,412.55
208,412.96
209,413.37
210,413.78
211,414.18
212,414.58
213,414.98
214,415.38
215,415.78
216,416.18
217,416.57
218,416.96
219,417.35
220,417.74
221,418.13
222,418.52
223,418.91
224,419.29
225,419.68
226,420.06
227,420.44
228,420.82
229,421.20
230,421.58
231,421.96
232,422.33
233,422.71
234,423.08
235,423.45
236,423.82
237,424.18
238,424.55
239,424.91
240,425.28
241,425.64
242,426.00
243,426.36
244,426.71
245,427.07
246,427.42
247,427.78
248,428.13
249,428.48
250,428.83
251,429.17
252,429.52
253,429.86
254,430.20
255,430.54
256,430.88
257,431.22
258,431.56
259,431.91
260,432.25
261,432.58
262,432.92
263,433.26
264,433.59
265,433.93
266,434.26
267,434.59
268,434.92
269,435.25
270,435.58
271,435.91
272,436.23
273,436.56
274,436.88
275,437.21
276,437.53
277,437.85
278,438.17
279,438.48
280,438.80
281,439.12
282,439.43
283,439.74
284,440.06
285,440.37
286,440.68
287,440.99
288,441.29
289,441.60
290,441.90
291,442.21
292,442.51
293,442.81
294,443.11
295,443.41
296,443.71
297,444.01
298,444.30
299,444.60
300,444.89
301,445.19
302,445.48
303,445.77
304,446.06
305,446.34
306,446.64
307,446.93
308,447.22
309,447.51
310,447.79
311,448.08
312,448.37
313,448.65
314,448.94
315,449.22
316,449.50
317,449.79
318,450.07
319,450.35
320,450.62
321,450.90
322,451.18
323,451.46
324,451.73
325,452.00
326,452.28
327,452.55
328,452.82
329,453.09
330,453.36
331,453.63
332,453.90
333,454.16
334,454.43
335,454.69
336,454.96
337,455.22
338,455.48
339,455.74
340,456.00
341,456.26
342,456.52
343,456.78
344,457.03
345,457.29
346,457.54
347,457.80
348,458.05
349,458.30
350,458.55
351,458.80
352,459.05
353,459.30
354,459.55
355,459.80
356,460.05
357,460.30
358,460.55
359,460.80
360,461.04
361,461.29
362,461.54
363,461.78
364,462.02
365,462.27
366,462.51
367,462.75
368,462.99
369,463.23
370,463.47
371,463.71
372,463.95
373,464.19
374,464.43
375,464.66
376,464.90
377,465.13
378,465.36
379,465.60
380,465.83
381,466.06
382,466.29
383,466.52
384,466.75
385,466.98
386,467.21
387,467.44
388,467.66
389,467.89
390,468.11
391,468.34
392,468.56
393,468.78
394,469.00
395,469.22
396,469.45
397,469.66
398,469.88
399,470.10
400,470.32
401,470.54
402,470.75
403,470.97
404,471.18
405,471.40
406,471.61
407,471.70
408,471.68
409,471.60
410,471.46
411,471.25
412,470.99
413,470.67
414,470.37
415,470.31
416,470.25
417,470.19
418,470.16
419,470.19
420,470.21
421,470.24
422,470.30
423,470.39
424,470.48
425,470.57
426,470.71
427,470.88
428,471.04
429,471.20
430,471.45
431,471.72
432,471.98
433,472.25
434,472.51
435,472.78
436,473.04
437,473.31
438,473.63
439,473.94
440,474.26
441,474.58
442,474.89
443,475.21
444,475.52
445,475.84
446,476.16
447,476.49
448,476.81
449,477.13
450,477.45
451,477.77
452,478.10
453,478.37
454,478.63
455,478.89
456,479.15
457,479.41
458,479.67
459,479.93
460,480.19
461,480.45
462,480.71
463,480.97
464,481.23
465,481.49
466,481.75
467,482.00
468,482.23
469,482.41
470,482.58
471,482.76
472,482.94
473,483.11
474,483.29
475,483.46
476,483.64
477,483.82
478,483.99
479,484.17
480,484.34