File: PMMA/Validation_Results/UMET/UMET_Gasification_q50_MLR_R5.csv
Time,MLR
[s],[g/m2/s]
0,0
1,1.01E-11
2,3.87E-09
3,1.05E-07
4,2.13E-06
5,1.35E-05
6,4.71E-05
7,9.12E-05
8,6.36E-04
9,0.00101973
10,0.006169525
11,0.006169525
12,0.021166
13,0.021166
14,0.021166
15,0.123878
16,0.123878
17,0.123878
18,0.123878
19,0.436475
20,0.436475
21,0.436475
22,0.436475
23,0.436475
24,1.06501
25,1.06501
26,1.06501
27,1.06501
28,1.06501
29,2.0664
30,2.0664
31,2.0664
32,2.0664
33,2.0664
34,4.88122
35,4.88122
36,4.88122
37,4.88122
38,4.88122
39,4.88122
40,4.88122
41,4.88122
42,4.88122
43,8.09387
44,8.09387
45,8.09387
46,8.09387
47,8.09387
48,8.09387
49,8.09387
50,8.09387
51,8.09387
52,11.0021
53,11.0021
54,11.0021
55,11.0021
56,11.0021
57,11.0021
58,11.0021
59,11.0021
60,13.3084
61,13.3084
62,13.3084
63,13.3084
64,13.3084
65,13.3084
66,13.3084
67,13.3084
68,13.3084
69,14.0502
70,14.1997
71,14.3493
72,14.4989
73,14.6484
74,14.798
75,14.9475
76,15.0971
77,15.2778
78,15.4344
79,15.591
80,15.7475
81,15.9041
82,16.0607
83,16.2173
84,16.3739
85,16.5305
86,16.4741
87,16.587
88,16.7
89,16.8129
90,16.9259
91,17.0388
92,17.1518
93,17.2647
94,17.3777
95,17.4906
96,17.6036
97,17.7165
98,17.8295
99,17.9424
100,18.0554
101,18.1683
102,18.2813
103,18.157
104,18.2438
105,18.3306
106,18.4174
107,18.5042
108,18.591
109,18.6778
110,18.7646
111,18.8514
112,18.9382
113,19.025
114,19.1118
115,19.1986
116,19.2854
117,19.3722
118,19.459
119,19.5459
120,19.4286
121,19.4927
122,19.5568
123,19.6209
124,19.685
125,19.7492
126,19.8133
127,19.8774
128,19.9415
129,20.0056
130,20.0698
131,20.1339
132,20.198
133,20.2621
134,20.3262
135,20.3904
136,20.4545
137,20.4057
138,20.4571
139,20.5086
140,20.56
141,20.6115
142,20.6629
143,20.7144
144,20.7658
145,20.8173
146,20.8688
147,20.9202
148,20.9717
149,21.0231
150,21.0746
151,21.126
152,21.1775
153,21.2289
154,21.2078
155,21.2511
156,21.2943
157,21.3376
158,21.3808
159,21.4241
160,21.4673
161,21.5105
162,21.5538
163,21.597
164,21.6403
165,21.6835
166,21.7268
167,21.77
168,21.8133
169,21.8565
170,21.8998
171,21.8831
172,21.9195
173,21.9559
174,21.9924
175,22.0288
176,22.0652
177,22.1016
178,22.138
179,22.1744
180,22.2108
181,22.2473
182,22.2837
183,22.3201
184,22.3565
185,22.3929
186,22.4293
187,22.4657
188,22.4381
189,22.4672
190,22.4962
191,22.5252
192,22.5543
193,22.5833
194,22.6124
195,22.6414
196,22.6705
197,22.6995
198,22.7285
199,22.7576
200,22.7866
201,22.8157
202,22.8447
203,22.8738
204,22.9028
205,22.9318
206,22.9609
207,22.9899
208,23.019
209,23.048
210,23.0771
211,23.1061
212,23.1351
213,23.1642
214,23.1932
215,23.2223
216,23.2513
217,23.2804
218,23.3094
219,23.3384
220,23.3675
221,23.3965
222,23.4256
223,23.4008
224,23.4268
225,23.4529
226,23.479
227,23.505
228,23.5311
229,23.5572
230,23.5832
231,23.6093
232,23.6353
233,23.6614
234,23.6875
235,23.7135
236,23.7396
237,23.7657
238,23.7917
239,23.8178
240,23.8439
241,23.8699
242,23.896
243,23.922
244,23.9481
245,23.9742
246,24.0002
247,24.0263
248,24.0524
249,24.0784
250,24.1045
251,24.1306
252,24.1566
253,24.1827
254,24.2087
255,24.2348
256,24.2609
257,24.1852
258,24.2056
259,24.226
260,24.2464
261,24.2667
262,24.2871
263,24.3075
264,24.3279
265,24.3483
266,24.3687
267,24.3891
268,24.4094
269,24.4298
270,24.4502
271,24.4706
272,24.491
273,24.5114
274,24.5317
275,24.5521
276,24.5725
277,24.5929
278,24.6133
279,24.6337
280,24.6541
281,24.6744
282,24.6948
283,24.7152
284,24.7356
285,24.756
286,24.7764
287,24.7968
288,24.8171
289,24.8375
290,24.8579
291,24.8783
292,24.8987
293,24.9191
294,24.9394
295,24.9598
296,24.9802
297,25.0006
298,25.021
299,25.0414
300,25.0618
301,25.0821
302,25.1025
303,25.1229
304,25.1433
305,25.1081
306,25.1263
307,25.1444
308,25.1626
309,25.1807
310,25.1989
311,25.217
312,25.2352
313,25.2533
314,25.2715
315,25.2896
316,25.3078
317,25.3259
318,25.3441
319,25.3622
320,25.3804
321,25.3985
322,25.4167
323,25.4348
324,25.453
325,25.4711
326,25.4893
327,25.5074
328,25.5256
329,25.5437
330,25.5619
331,25.58
332,25.5982
333,25.6163
334,25.6345
335,25.6526
336,25.6707
337,25.6889
338,25.707
339,25.7252
340,25.7433
341,25.7615
342,25.7796
343,25.7978
344,25.8159
345,25.8341
346,25.8522
347,25.8704
348,25.8885
349,25.9067
350,25.9248
351,25.943
352,25.9611
353,25.9186
354,25.9343
355,25.95
356,25.9657
357,25.9814
358,25.9971
359,26.0129
360,26.0286
361,26.0443
362,26.06
363,26.0757
364,26.0914
365,26.1071
366,26.1228
367,26.1385
368,26.1542
369,26.1699
370,26.1856
371,26.2013
372,26.217
373,26.2327
374,26.2485
375,26.2642
376,26.2799
377,26.2956
378,26.3113
379,26.327
380,26.3427
381,26.3584
382,26.3741
383,26.3898
384,26.4055
385,26.4212
386,26.4369
387,26.4526
388,26.4683
389,26.4841
390,26.4998
391,26.5155
392,26.5312
393,26.5469
394,26.5626
395,26.5783
396,26.594
397,26.6097
398,26.6254
399,26.6411
400,26.6568
401,26.6734
402,26.6892
403,26.7049
404,26.7207
405,26.7364
406,18.5474
407,15.9867
408,13.426
409,10.8653
410,8.30454
411,5.74382
412,3.18309
413,0.748626
414,0.748626
415,0.748626
416,0.748626
417,0.348356
418,0.348356
419,0.348356
420,0.348356
421,0.197518
422,0.197518
423,0.197518
424,0.197518
425,0.125841
426,0.125841
427,0.125841
428,0.125841
429,0.0637556
430,0.0637556
431,0.0637556
432,0.0637556
433,0.0637556
434,0.0637556
435,0.0637556
436,0.0376572
437,0.0376572
438,0.0376572
439,0.0376572
440,0.0376572
441,0.0376572
442,0.0376572
443,0.0376572
444,0.02463076
445,0.02463076
446,0.02463076
447,0.02463076
448,0.02463076
449,0.02463076
450,0.02463076
451,0.02463076
452,0.01303647
453,0.01303647
454,0.01303647
455,0.01303647
456,0.01303647
457,0.01303647
458,0.01303647
459,0.01303647
460,0.01303647
461,0.01303647
462,0.01303647
463,0.01303647
464,0.01303647
465,0.01303647
466,0.01303647
467,0.008113443
468,0.008113443
469,0.008113443
470,0.008113443
471,0.008113443
472,0.008113443
473,0.008113443
474,0.008113443
475,0.008113443
476,0.008113443
477,0.008113443
478,0.008113443
479,0.008113443
480,0.008113443