File: PMMA/Validation_Results/UMET/UMET_Gasification_q50_MLR_R3.csv
Time,MLR
[s],[g/m2/s]
0,0
1,1.30E-11
2,5.17E-09
3,1.34E-07
4,2.66E-06
5,1.63E-05
6,5.60E-05
7,1.05E-04
8,7.71E-04
9,0.001213638
10,0.006861928
11,0.006861928
12,0.0235204
13,0.0235204
14,0.0235204
15,0.130488
16,0.130488
17,0.130488
18,0.130488
19,0.441042
20,0.441042
21,0.441042
22,0.441042
23,0.441042
24,1.04814
25,1.04814
26,1.04814
27,1.04814
28,1.04814
29,2.00475
30,2.00475
31,2.00475
32,2.00475
33,4.75283
34,4.75283
35,4.75283
36,4.75283
37,4.75283
38,4.75283
39,4.75283
40,4.75283
41,4.75283
42,4.75283
43,7.94169
44,7.94169
45,7.94169
46,7.94169
47,7.94169
48,7.94169
49,7.94169
50,7.94169
51,10.8982
52,10.8982
53,10.8982
54,10.8982
55,10.8982
56,10.8982
57,10.8982
58,10.8982
59,13.2443
60,13.2443
61,13.2443
62,13.2443
63,13.2443
64,13.2443
65,13.2443
66,13.2443
67,13.2443
68,13.9979
69,14.1528
70,14.3078
71,14.4628
72,14.6178
73,14.7728
74,14.9278
75,15.0827
76,15.2754
77,15.4388
78,15.6023
79,15.7657
80,15.9292
81,16.0926
82,16.2561
83,16.4195
84,16.583
85,16.5218
86,16.6406
87,16.7594
88,16.8781
89,16.9969
90,17.1156
91,17.2344
92,17.3532
93,17.4719
94,17.5907
95,17.7094
96,17.8282
97,17.947
98,18.0657
99,18.1845
100,18.3032
101,18.422
102,18.2819
103,18.3732
104,18.4644
105,18.5556
106,18.6468
107,18.738
108,18.8293
109,18.9205
110,19.0117
111,19.1029
112,19.1941
113,19.2854
114,19.3766
115,19.4678
116,19.559
117,19.6503
118,19.5364
119,19.6037
120,19.671
121,19.7383
122,19.8055
123,19.8728
124,19.9401
125,20.0074
126,20.0746
127,20.1419
128,20.2092
129,20.2765
130,20.3437
131,20.411
132,20.4783
133,20.5455
134,20.6128
135,20.5543
136,20.6071
137,20.66
138,20.7128
139,20.7657
140,20.8185
141,20.8714
142,20.9242
143,20.9771
144,21.0299
145,21.0828
146,21.1356
147,21.1885
148,21.2413
149,21.2942
150,21.347
151,21.3999
152,21.3793
153,21.4238
154,21.4684
155,21.513
156,21.5576
157,21.6022
158,21.6467
159,21.6913
160,21.7359
161,21.7805
162,21.8251
163,21.8697
164,21.9142
165,21.9588
166,22.0034
167,22.048
168,22.0926
169,22.0562
170,22.0919
171,22.1275
172,22.1632
173,22.1988
174,22.2345
175,22.2701
176,22.3057
177,22.3414
178,22.377
179,22.4127
180,22.4483
181,22.484
182,22.5196
183,22.5553
184,22.5909
185,22.6265
186,22.6622
187,22.6978
188,22.7335
189,22.7691
190,22.8048
191,22.8404
192,22.876
193,22.9117
194,22.9473
195,22.983
196,23.0186
197,23.0543
198,23.0899
199,23.1255
200,23.1612
201,23.1968
202,23.2325
203,23.189
204,23.2202
205,23.2514
206,23.2826
207,23.3138
208,23.345
209,23.3762
210,23.4074
211,23.4386
212,23.4698
213,23.501
214,23.5322
215,23.5634
216,23.5946
217,23.6258
218,23.657
219,23.6882
220,23.7194
221,23.7506
222,23.7818
223,23.813
224,23.8442
225,23.8753
226,23.9065
227,23.9377
228,23.9689
229,24.0001
230,24.0313
231,24.0625
232,24.0937
233,24.1249
234,24.1561
235,24.1873
236,24.1313
237,24.1574
238,24.1835
239,24.2096
240,24.2357
241,24.2618
242,24.2879
243,24.314
244,24.3401
245,24.3662
246,24.3923
247,24.4184
248,24.4445
249,24.4706
250,24.4967
251,24.5228
252,24.5489
253,24.575
254,24.6011
255,24.6272
256,24.6533
257,24.6794
258,24.7055
259,24.7316
260,24.7577
261,24.7838
262,24.8099
263,24.836
264,24.8621
265,24.8882
266,24.9143
267,24.9404
268,24.9665
269,24.9926
270,24.9178
271,24.9381
272,24.9584
273,24.9788
274,24.9991
275,25.0194
276,25.0397
277,25.06
278,25.0804
279,25.1007
280,25.121
281,25.1413
282,25.1616
283,25.1819
284,25.2023
285,25.2226
286,25.2429
287,25.2632
288,25.2835
289,25.3039
290,25.3242
291,25.3445
292,25.3648
293,25.3851
294,25.4055
295,25.4258
296,25.4461
297,25.4664
298,25.4867
299,25.5071
300,25.5274
301,25.5477
302,25.568
303,25.5883
304,25.6086
305,25.629
306,25.6493
307,25.6696
308,25.6899
309,25.7102
310,25.7306
311,25.7509
312,25.7712
313,25.7915
314,25.8118
315,25.8322
316,25.8525
317,25.8728
318,25.8478
319,25.8663
320,25.8847
321,25.9032
322,25.9217
323,25.9402
324,25.9586
325,25.9771
326,25.9956
327,26.0141
328,26.0325
329,26.051
330,26.0695
331,26.088
332,26.1065
333,26.1249
334,26.1434
335,26.1619
336,26.1804
337,26.1988
338,26.2173
339,26.2358
340,26.2543
341,26.2727
342,26.2912
343,26.3097
344,26.3282
345,26.3467
346,26.3651
347,26.3836
348,26.4021
349,26.4206
350,26.439
351,26.4575
352,26.476
353,26.4945
354,26.5129
355,26.5314
356,26.5499
357,26.5684
358,26.5869
359,26.6053
360,26.6238
361,26.6423
362,26.6608
363,26.6792
364,26.6977
365,26.7162
366,26.7199
367,26.7378
368,26.7557
369,26.7736
370,26.7915
371,26.8042
372,26.8203
373,26.8365
374,26.8526
375,26.8688
376,26.8849
377,26.9011
378,26.9148
379,26.9303
380,18.4146
381,11.9786
382,3.25692
383,3.25692
384,1.66429
385,1.66429
386,0.991057
387,0.991057
388,0.652384
389,0.347593
390,0.347593
391,0.347593
392,0.347593
393,0.213076
394,0.213076
395,0.213076
396,0.143001
397,0.143001
398,0.143001
399,0.143001
400,0.0775054
401,0.0775054
402,0.0775054
403,0.0775054
404,0.0775054
405,0.0775054
406,0.0775054
407,0.0480369
408,0.0480369
409,0.0480369
410,0.0480369
411,0.0480369
412,0.0480369
413,0.0480369
414,0.0325949
415,0.0325949
416,0.0325949
417,0.0325949
418,0.0325949
419,0.0325949
420,0.0325949
421,0.0181113
422,0.0181113
423,0.0181113
424,0.0181113
425,0.0181113
426,0.0181113
427,0.0181113
428,0.0181113
429,0.0181113
430,0.0181113
431,0.0181113
432,0.0181113
433,0.0181113
434,0.0181113
435,0.0181113
436,0.0116033
437,0.0116033
438,0.0116033
439,0.0116033
440,0.0116033
441,0.0116033
442,0.0116033
443,0.0116033
444,0.0116033
445,0.0116033
446,0.0116033
447,0.0116033
448,0.0116033
449,0.0116033
450,0.008096265
451,0.008096265
452,0.008096265
453,0.008096265
454,0.008096265
455,0.008096265
456,0.008096265
457,0.008096265
458,0.008096265
459,0.008096265
460,0.008096265
461,0.008096265
462,0.008096265
463,0.008096265
464,0.004450168
465,0.004450168
466,0.004450168
467,0.004450168
468,0.004450168
469,0.004450168
470,0.004450168
471,0.004450168
472,0.004450168
473,0.004450168
474,0.004450168
475,0.004450168
476,0.004450168
477,0.004450168
478,0.004450168
479,0.004450168
480,0.004450168